time,seconds_elapsed,z,y,x
1760285883521411600,0.23441162109375,9.701604843139648,2.051830768585205,0.17477671802043915
1760285883531411500,0.244411376953125,9.68005657196045,2.0685901641845703,0.1628057211637497
1760285883541411600,0.25441162109375,9.646537780761719,2.0398597717285156,0.17956513166427612
1760285883551411500,0.264411376953125,9.615413665771484,2.03507137298584,0.15083470940589905
1760285883561411600,0.27441162109375,9.641749382019043,2.0207061767578125,0.16519992053508759
1760285883571411500,0.284411376953125,9.617807388305664,2.008735179901123,0.15801730751991272
1760285883581411600,0.29441162109375,9.605836868286133,2.0159177780151367,0.12689268589019775
1760285883591411500,0.304411376953125,9.598653793334961,2.0207061767578125,0.19632454216480255
1760285883601411600,0.31441162109375,9.627384185791016,1.987187385559082,0.19632454216480255
1760285883611411500,0.324411376953125,9.665691375732422,2.008735179901123,0.19632454216480255
1760285883621411600,0.33441162109375,9.665691375732422,2.013523578643799,0.20350714027881622
1760285883631411700,0.34441162109375,9.648932456970215,2.008735179901123,0.17238251864910126
1760285883641411600,0.35441162109375,9.634567260742188,1.9943699836730957,0.12928688526153564
1760285883651411700,0.36441162109375,9.624990463256836,2.0159177780151367,0.1173158809542656
1760285883661411600,0.37441162109375,9.543587684631348,1.9943699836730957,0.1364694982767105
1760285883671411700,0.38441162109375,9.397541046142578,1.9919757843017578,0.1173158809542656
1760285883681411600,0.39441162109375,9.354445457458496,2.0039467811584473,0.10055647045373917
1760285883691411700,0.40441162109375,9.378387451171875,1.987187385559082,0.10055647045373917
1760285883701411600,0.41441162109375,9.431059837341309,1.9943699836730957,0.0933738648891449
1760285883711411700,0.42441162109375,9.610625267028809,1.944091796875,0.10534487664699554
1760285883721411600,0.43441162109375,9.723152160644531,1.9369091987609863,0.11013327538967133
1760285883731411700,0.44441162109375,9.751882553100586,1.9560627937316895,0.10055647045373917
1760285883741411600,0.45441162109375,9.708786964416504,1.9512743949890137,0.1364694982767105
1760285883751411700,0.46441162109375,9.641749382019043,1.9776105880737305,0.15801730751991272
1760285883761411600,0.47441162109375,9.610625267028809,1.98958158493042,0.12928688526153564
1760285883771411700,0.48441162109375,9.636960983276367,2.0039467811584473,0.1364694982767105
1760285883781411600,0.49441162109375,9.605836868286133,1.9728221893310547,0.12210428714752197
1760285883791411700,0.50441162109375,9.557952880859375,1.9967641830444336,0.1604115068912506
1760285883801411600,0.51441162109375,9.538799285888672,2.0183119773864746,0.16519992053508759
1760285883811411700,0.52441162109375,9.52922248840332,2.008735179901123,0.1604115068912506
1760285883821411600,0.53441162109375,9.56274127960205,1.9847931861877441,0.1388636976480484
1760285883831411700,0.54441162109375,9.608230590820312,1.9847931861877441,0.12210428714752197
1760285883841411600,0.55441162109375,9.596260070800781,1.9823989868164062,0.0694318488240242
1760285883851411700,0.56441162109375,9.596260070800781,1.987187385559082,0.09576806426048279
1760285883861411600,0.57441162109375,9.584288597106934,1.944091796875,0.1149216815829277
1760285883871411700,0.58441162109375,9.577106475830078,1.9297266006469727,0.1604115068912506
1760285883881411600,0.59441162109375,9.584288597106934,1.9105730056762695,0.16519992053508759
1760285883891411700,0.60441162109375,9.648932456970215,1.9033904075622559,0.1604115068912506
1760285883901411600,0.61441162109375,9.692028045654297,1.9560627937316895,0.14365209639072418
1760285883911411700,0.62441162109375,9.684844970703125,1.9488801956176758,0.1388636976480484
1760285883921411600,0.63441162109375,9.574711799621582,1.9512743949890137,0.12449848651885986
1760285883931411700,0.64441162109375,9.455001831054688,1.9704279899597168,0.1173158809542656
1760285883941411600,0.65441162109375,9.447818756103516,1.9177556037902832,0.12928688526153564
1760285883951411700,0.66441162109375,9.457395553588867,1.8842366933822632,0.14604631066322327
1760285883961411600,0.67441162109375,9.52922248840332,1.8986018896102905,0.17717093229293823
1760285883971411700,0.68441162109375,9.555558204650879,1.9273324012756348,0.14844051003456116
1760285883981411600,0.69441162109375,9.560346603393555,1.9512743949890137,0.08379705995321274
1760285883991411700,0.70441162109375,9.550769805908203,1.9584569931030273,0.07182604819536209
1760285884001411600,0.71441162109375,9.490914344787598,1.944091796875,0.08858546614646912
1760285884011411700,0.72441162109375,9.507674217224121,1.920149803161621,0.1412578970193863
1760285884021411600,0.73441162109375,9.574711799621582,1.9584569931030273,0.1412578970193863
1760285884031411700,0.74441162109375,9.567529678344727,1.968033790588379,0.13407529890537262
1760285884041411600,0.75441162109375,9.538799285888672,1.9800047874450684,0.2561795711517334
1760285884051411700,0.76441162109375,9.615413665771484,1.9752163887023926,0.19153612852096558
1760285884061411600,0.77441162109375,9.601048469543457,1.9800047874450684,0.1173158809542656
1760285884071411700,0.78441162109375,9.601048469543457,1.9776105880737305,0.14604631066322327
1760285884081411600,0.79441162109375,9.58668327331543,1.9967641830444336,0.14604631066322327
1760285884091411700,0.80441162109375,9.68005657196045,2.0254945755004883,0.0933738648891449
1760285884101411600,0.81441162109375,9.754277229309082,1.9728221893310547,0.15083470940589905
1760285884111411700,0.82441162109375,6.402394771575928,1.3335703611373901,-0.44532153010368347
1760285884121411600,0.83441162109375,8.447042465209961,2.1140801906585693,-0.002394201699644327
1760285884131411700,0.84441162109375,10.01524543762207,2.3798365592956543,0.15322890877723694
1760285884141411600,0.85441162109375,10.64970874786377,2.1092917919158936,0.0694318488240242
1760285884151411700,0.86441162109375,10.23311710357666,1.98958158493042,-0.3878606855869293
1760285884161411600,0.87441162109375,9.96017837524414,1.9632453918457031,-0.2968810200691223
1760285884171411700,0.88441162109375,9.720758438110352,1.7764976024627686,-0.2753331959247589
1760285884181411600,0.89441162109375,9.490914344787598,1.6711528301239014,-0.2346317619085312
1760285884191411700,0.90441162109375,9.213187217712402,1.6711528301239014,-0.09576806426048279
1760285884201411600,0.91441162109375,8.880393028259277,1.7310078144073486,-0.4692635238170624
1760285884211411700,0.92441162109375,8.55717658996582,1.9105730056762695,-0.33279404044151306
1760285884221411600,0.93441162109375,8.47098445892334,1.9057846069335938,-0.2082955539226532
1760285884231411700,0.94441162109375,9.146149635314941,1.9728221893310547,-0.33758243918418884
1760285884241411600,0.95441162109375,9.790189743041992,2.049436569213867,-0.5506663918495178
1760285884251411700,0.96441162109375,10.10861873626709,1.9177556037902832,-0.7493851184844971
1760285884261411600,0.97441162109375,10.403105735778809,1.8195933103561401,-0.9097966551780701
1760285884271411700,0.98441162109375,10.429441452026367,1.6879122257232666,-0.7972691655158997
1760285884281411600,0.99441162109375,10.422259330749512,1.5107412338256836,-0.5195417404174805
1760285884291411700,1.00441162109375,9.89314079284668,1.0797849893569946,0.23942017555236816
1760285884301411600,1.01441162109375,9.692028045654297,0.8523358106613159,0.14844051003456116
1760285884311411700,1.02441162109375,9.761459350585938,0.8738836050033569,0.2801215946674347
1760285884321411600,1.03441162109375,9.87159252166748,0.9457096457481384,0.31364041566848755
1760285884331411700,1.04441162109375,9.907505989074707,1.0127472877502441,0.181959331035614
1760285884341411600,1.05441162109375,9.909899711608887,1.0534487962722778,0.07900865375995636
1760285884351411700,1.06441162109375,9.902717590332031,1.1061211824417114,0.06703764945268631
1760285884361411600,1.07441162109375,9.823708534240723,1.2258312702178955,-0.08619125932455063
1760285884371411700,1.08441162109375,9.699210166931152,1.3287819623947144,-0.31364041566848755
1760285884381411600,1.09441162109375,9.56274127960205,1.45806884765625,-0.4213795065879822
1760285884391411700,1.10441162109375,9.462183952331543,1.5610195398330688,-0.43095630407333374
1760285884401411600,1.11441162109375,9.421483039855957,1.5682021379470825,-0.4141969084739685
1760285884411411200,1.1244111328125,9.426271438598633,1.5418659448623657,-0.2968810200691223
1760285884421411300,1.134411376953125,9.495702743530273,1.4460978507995605,-0.2322375625371933
1760285884431411200,1.1444111328125,9.603442192077637,1.434126853942871,-0.17477671802043915
1760285884441411300,1.154411376953125,9.730335235595703,1.434126853942871,-0.19153612852096558
1760285884451411200,1.1644111328125,9.811738014221191,1.436521053314209,-0.26336219906806946
1760285884461411300,1.174411376953125,10.16368579864502,1.4437036514282227,-0.363918662071228
1760285884471411200,1.1844111328125,10.611401557922363,1.4915876388549805,-0.5746083855628967
1760285884481411300,1.194411376953125,10.362403869628906,1.6424223184585571,-0.689530074596405
1760285884491411200,1.2044111328125,10.087071418762207,1.702277421951294,-0.7661445140838623
1760285884501411300,1.214411376953125,9.794978141784668,1.7286136150360107,-0.7254431247711182
1760285884511411200,1.2244111328125,9.555558204650879,1.7070658206939697,-0.6248866319656372
1760285884521411300,1.234411376953125,9.431059837341309,1.656787633895874,-0.524330198764801
1760285884531411200,1.2444111328125,9.414299964904785,1.644816517829895,-0.5722141861915588
1760285884541411300,1.254411376953125,9.481337547302246,1.6496049165725708,-0.6129156351089478
1760285884551411200,1.2644111328125,9.608230590820312,1.6352397203445435,-0.5722141861915588
1760285884561411300,1.274411376953125,9.639355659484863,1.6065093278884888,-0.5434837937355042
1760285884571411200,1.2844111328125,9.692028045654297,1.525106430053711,-0.4620809257030487
1760285884581411300,1.294411376953125,9.811738014221191,1.4460978507995605,-0.37828385829925537
1760285884591411200,1.3044111328125,9.900322914123535,1.4987702369689941,-0.38307225704193115
1760285884601411300,1.314411376953125,9.919476509094238,1.482010841369629,-0.45489832758903503
1760285884611411200,1.3244111328125,9.80455493927002,1.5298948287963867,-0.4596867263317108
1760285884621411300,1.334411376953125,9.610625267028809,1.5298948287963867,-0.4357447028160095
1760285884631411200,1.3444111328125,9.452607154846191,1.5610195398330688,-0.47644615173339844
1760285884641411300,1.354411376953125,9.38317584991455,1.5682021379470825,-0.4884171485900879
1760285884651411200,1.3644111328125,9.395146369934082,1.5729905366897583,-0.48602294921875
1760285884661411300,1.374411376953125,9.455001831054688,1.5275006294250488,-0.4429273009300232
1760285884671411200,1.3844111328125,9.567529678344727,1.5083470344543457,-0.4908113479614258
1760285884681411300,1.394411376953125,9.766247749328613,1.4772224426269531,-0.48602294921875
1760285884691411200,1.4044111328125,9.833285331726074,1.41257905960083,-0.33279404044151306
1760285884701411300,1.414411376953125,9.76864242553711,1.3982137441635132,-0.31603461503982544
1760285884711411700,1.42441162109375,9.668086051940918,1.414973258972168,-0.3687070608139038
1760285884721411600,1.43441162109375,9.58668327331543,1.460463047027588,-0.4620809257030487
1760285884731411700,1.44441162109375,9.543587684631348,1.479616641998291,-0.45489832758903503
1760285884741412000,1.454412109375,9.524434089660645,1.4915876388549805,-0.4572925269603729
1760285884751412200,1.464412109375,9.505280494689941,1.4724340438842773,-0.4668693244457245
1760285884761412000,1.474412109375,9.478943824768066,1.4508862495422363,-0.45010992884635925
1760285884771412200,1.484412109375,9.447818756103516,1.436521053314209,-0.3926490843296051
1760285884781412000,1.494412109375,9.423876762390137,1.381454348564148,-0.3256114423274994
1760285884791412200,1.504412109375,9.517251014709473,1.3694833517074585,-0.304063618183136
1760285884801412000,1.514412109375,9.610625267028809,1.3551181554794312,-0.26575639843940735
1760285884811412200,1.524412109375,9.68005657196045,1.3263877630233765,-0.2346317619085312
1760285884821412000,1.534412109375,9.735123634338379,1.3048399686813354,-0.17477671802043915
1760285884831412200,1.544412109375,9.694421768188477,1.2713210582733154,-0.17717093229293823
1760285884841412000,1.554412109375,9.62259578704834,1.338358759880066,-0.2082955539226532
1760285884851412200,1.564412109375,9.517251014709473,1.3742717504501343,-0.2561795711517334
1760285884861412000,1.574412109375,9.483732223510742,1.3910311460494995,-0.3280056416988373
1760285884871412200,1.584412109375,9.500492095947266,1.4700398445129395,-0.44532153010368347
1760285884881412000,1.594412109375,9.538799285888672,1.5203180313110352,-0.4692635238170624
1760285884891412200,1.604412109375,9.567529678344727,1.5418659448623657,-0.47644615173339844
1760285884901412000,1.614412109375,9.584288597106934,1.534683346748352,-0.4596867263317108
1760285884911412200,1.624412109375,9.58907699584961,1.5179238319396973,-0.45489832758903503
1760285884921412000,1.634412109375,9.610625267028809,1.4915876388549805,-0.44771572947502136
1760285884931412200,1.644412109375,9.682451248168945,1.5083470344543457,-0.3758896589279175
1760285884941412000,1.654412109375,9.766247749328613,1.4963760375976562,-0.40462008118629456
1760285884951412200,1.664412109375,9.840468406677246,1.479616641998291,-0.38307225704193115
1760285884966067200,1.679067138671875,9.826103210449219,1.479616641998291,-0.44532153010368347
1760285884976067300,1.6890673828125,9.797372817993164,1.460463047027588,-0.4596867263317108
1760285884986067200,1.699067138671875,9.823708534240723,1.4389152526855469,-0.43095630407333374
1760285884996067300,1.7090673828125,9.816526412963867,1.4484920501708984,-0.47165772318840027
1760285885006067200,1.719067138671875,9.792584419250488,1.4245500564575195,-0.5817909836769104
1760285885016067300,1.7290673828125,9.806949615478516,1.479616641998291,-0.6248866319656372
1760285885026067200,1.739067138671875,9.826103210449219,1.482010841369629,-0.5985504388809204
1760285885036067300,1.7490673828125,9.787796020507812,1.482010841369629,-0.5817909836769104
1760285885046066700,1.759066650390625,9.730335235595703,1.4676456451416016,-0.5506663918495178
1760285885056066800,1.76906689453125,9.675268173217773,1.4676456451416016,-0.5099649429321289
1760285885066066400,1.77906640625,9.668086051940918,1.4389152526855469,-0.45489832758903503
1760285885076066300,1.78906640625,9.65611457824707,1.400607943534851,-0.42616790533065796
1760285885086066400,1.79906640625,9.65372085571289,1.403002142906189,-0.4189853072166443
1760285885096066300,1.80906640625,9.608230590820312,1.414973258972168,-0.3878606855869293
1760285885106066400,1.81906640625,9.574711799621582,1.4389152526855469,-0.3232172429561615
1760285885116066300,1.82906640625,9.538799285888672,1.4173674583435059,-0.2801215946674347
1760285885126066400,1.83906640625,9.510068893432617,1.3934253454208374,-0.30885201692581177
1760285885136066600,1.849066650390625,9.52922248840332,1.3934253454208374,-0.31842881441116333
1760285885146066400,1.85906640625,9.486125946044922,1.4317326545715332,-0.35434186458587646
1760285885156066600,1.869066650390625,9.505280494689941,1.4245500564575195,-0.40940847992897034
1760285885166066400,1.87906640625,9.548376083374023,1.434126853942871,-0.3926490843296051
1760285885176066300,1.88906640625,9.641749382019043,1.4053963422775269,-0.3423708379268646
1760285885186066400,1.89906640625,9.684844970703125,1.3551181554794312,-0.2849099934101105
1760285885196066300,1.90906640625,9.6896333694458,1.3551181554794312,-0.2346317619085312
1760285885206066400,1.91906640625,9.62020206451416,1.314416766166687,-0.24660277366638184
1760285885216066300,1.92906640625,9.567529678344727,1.335964560508728,-0.27054479718208313
1760285885226066400,1.93906640625,9.519645690917969,1.3431471586227417,-0.26815059781074524
1760285885236066300,1.94906640625,9.567529678344727,1.335964560508728,-0.22744916379451752
1760285885246066400,1.95906640625,9.651326179504395,1.2976573705673218,-0.17717093229293823
1760285885256066300,1.96906640625,9.71357536315918,1.2617442607879639,-0.13168109953403473
1760285885266066400,1.97906640625,9.749488830566406,1.2234370708465576,-0.10773907601833344
1760285885276066300,1.98906640625,9.735123634338379,1.256955862045288,-0.1388636976480484
1760285885286066400,1.99906640625,9.696816444396973,1.335964560508728,-0.22744916379451752
1760285885296066300,2.00906640625,9.6896333694458,1.3718775510787964,-0.2968810200691223
1760285885306066400,2.01906640625,9.699210166931152,1.3623007535934448,-0.31364041566848755
1760285885316066300,2.02906640625,9.737517356872559,1.3934253454208374,-0.3064578175544739
1760285885326066400,2.03906640625,9.775824546813965,1.3862427473068237,-0.31603461503982544
1760285885336066300,2.04906640625,9.792584419250488,1.3934253454208374,-0.3974374830722809
1760285885346066400,2.05906640625,9.811738014221191,1.460463047027588,-0.5315127968788147
1760285885356066300,2.06906640625,9.840468406677246,1.5203180313110352,-0.6320692300796509
1760285885366066700,2.079066650390625,9.828496932983398,1.5873557329177856,-0.6775590777397156
1760285885376066800,2.08906689453125,9.794978141784668,1.5849615335464478,-0.629675030708313
1760285885386067000,2.09906689453125,9.766247749328613,1.5083470344543457,-0.5578489899635315
1760285885396066800,2.10906689453125,9.682451248168945,1.4891934394836426,-0.507570743560791
1760285885406067000,2.11906689453125,9.641749382019043,1.4628572463989258,-0.5099649429321289
1760285885416066800,2.12906689453125,9.658509254455566,1.4484920501708984,-0.44532153010368347
1760285885426066700,2.139066650390625,9.720758438110352,1.4460978507995605,-0.44771572947502136
1760285885436066800,2.14906689453125,9.74470043182373,1.4389152526855469,-0.4620809257030487
1760285885456066800,2.16906689453125,9.651326179504395,1.403002142906189,-0.4429273009300232
1760285885466066700,2.179066650390625,9.538799285888672,1.3742717504501343,-0.4189853072166443
1760285885476066800,2.18906689453125,9.519645690917969,1.3646949529647827,-0.38546648621559143
1760285885486066700,2.199066650390625,9.519645690917969,1.335964560508728,-0.35913026332855225
1760285885496066800,2.20906689453125,9.550769805908203,1.3263877630233765,-0.33997663855552673
1760285885506066700,2.219066650390625,9.52922248840332,1.3263877630233765,-0.38546648621559143
1760285885516066800,2.22906689453125,9.466972351074219,1.3623007535934448,-0.38067805767059326
1760285885526066700,2.239066650390625,9.428665161132812,1.3623007535934448,-0.3663128614425659
1760285885536066800,2.24906689453125,9.431059837341309,1.3623007535934448,-0.35673606395721436
1760285885546066700,2.259066650390625,9.512462615966797,1.357512354850769,-0.363918662071228
1760285885556066800,2.26906689453125,9.615413665771484,1.3718775510787964,-0.3687070608139038
1760285885566066700,2.279066650390625,9.703998565673828,1.3886369466781616,-0.38067805767059326
1760285885586066700,2.299066650390625,9.826103210449219,1.381454348564148,-0.4213795065879822
1760285885596066800,2.30906689453125,9.74470043182373,1.4221558570861816,-0.4884171485900879
1760285885606066700,2.319066650390625,9.663297653198242,1.4532804489135742,-0.5841852426528931
1760285885616066800,2.32906689453125,9.598653793334961,1.4652514457702637,-0.5650315880775452
1760285885626067000,2.33906689453125,9.639355659484863,1.455674648284912,-0.4620809257030487
1760285885636066800,2.34906689453125,9.65372085571289,1.414973258972168,-0.40940847992897034
1760285885646067000,2.35906689453125,9.68005657196045,1.357512354850769,-0.38307225704193115
1760285885656066800,2.36906689453125,9.692028045654297,1.3718775510787964,-0.3902548849582672
1760285885666067000,2.37906689453125,9.715970039367676,1.4173674583435059,-0.4118026793003082
1760285885676066800,2.38906689453125,9.687239646911621,1.4508862495422363,-0.47165772318840027
1760285885686066700,2.399066650390625,9.65372085571289,1.4939818382263184,-0.5291185975074768
1760285885696066800,2.40906689453125,9.665691375732422,1.5394717454910278,-0.5363011956214905
1760285885706066700,2.419066650390625,9.720758438110352,1.534683346748352,-0.5434837937355042
1760285885716066800,2.42906689453125,9.833285331726074,1.5466543436050415,-0.5147533416748047
1760285885726066700,2.439066650390625,9.89314079284668,1.5418659448623657,-0.5195417404174805
1760285885736066800,2.44906689453125,9.917082786560059,1.5298948287963867,-0.5171475410461426
1760285885746066700,2.459066650390625,9.83807373046875,1.5466543436050415,-0.5339069962501526
1760285885756066800,2.46906689453125,9.74709415435791,1.5753847360610962,-0.5363011956214905
1760285885766066700,2.479066650390625,9.670479774475098,1.5969325304031372,-0.5578489899635315
1760285885776066800,2.48906689453125,9.627384185791016,1.623268723487854,-0.6177040338516235
1760285885786066700,2.499066650390625,9.624990463256836,1.6519991159439087,-0.6320692300796509
1760285885796066800,2.50906689453125,9.71357536315918,1.6543933153152466,-0.608127236366272
1760285885806066700,2.519066650390625,7.6425909996032715,1.8579005002975464,-0.8068459630012512
1760285885816066800,2.52906689453125,9.591471672058105,1.522712230682373,-0.3734954595565796
1760285885826066700,2.539066650390625,9.268254280090332,1.359906554222107,-0.38546648621559143
1760285885836066800,2.54906689453125,9.579500198364258,1.259350061416626,-0.19632454216480255
1760285885846066700,2.559066650390625,9.627384185791016,1.2497732639312744,-0.22266076505184174
1760285885856066800,2.56906689453125,9.787796020507812,1.2449848651885986,-0.3423708379268646
1760285885866066700,2.579066650390625,9.881169319152832,1.2545616626739502,-0.47405192255973816
1760285885876066800,2.58906689453125,9.89314079284668,1.2641384601593018,-0.5554547905921936
1760285885886067000,2.59906689453125,9.852438926696777,1.2545616626739502,-0.6416460275650024
1760285885896066800,2.60906689453125,9.74470043182373,1.2856862545013428,-0.6536170840263367
1760285885906067000,2.61906689453125,9.658509254455566,1.3048399686813354,-0.6655880808830261
1760285885916066800,2.62906689453125,9.591471672058105,1.3096283674240112,-0.5817909836769104
1760285885926066700,2.639066650390625,9.524434089660645,1.3000515699386597,-0.49799394607543945
1760285885936066800,2.64906689453125,9.457395553588867,1.3048399686813354,-0.4668693244457245
1760285885946066700,2.659066650390625,9.536404609680176,1.3215993642807007,-0.5386953949928284
1760285885956066800,2.66906689453125,9.641749382019043,1.3503297567367554,-0.5889736413955688
1760285885966066700,2.679066650390625,9.634567260742188,1.37906014919281,-0.6200982332229614
1760285885976066800,2.68906689453125,9.644144058227539,1.4460978507995605,-0.6248866319656372
1760285885986066700,2.699066650390625,9.629778861999512,1.4413094520568848,-0.6631938815116882
1760285885996066800,2.70906689453125,9.692028045654297,1.4532804489135742,-0.689530074596405
1760285886006066700,2.719066650390625,9.730335235595703,1.4628572463989258,-0.646434485912323
1760285886016066800,2.72906689453125,9.651326179504395,1.434126853942871,-0.6129156351089478
1760285886026066700,2.739066650390625,9.67766284942627,1.4197616577148438,-0.5817909836769104
1760285886036066800,2.74906689453125,9.703998565673828,1.4053963422775269,-0.5841852426528931
1760285886046066700,2.759066650390625,9.692028045654297,1.4221558570861816,-0.6009446382522583
1760285886056066800,2.76906689453125,9.708786964416504,1.4221558570861816,-0.5482721924781799
1760285886066066700,2.779066650390625,9.778219223022461,1.4437036514282227,-0.5506663918495178
1760285886076066800,2.78906689453125,9.759065628051758,1.414973258972168,-0.5722141861915588
1760285886086066700,2.799066650390625,9.76864242553711,1.4269442558288574,-0.569819986820221
1760285886106067000,2.81906689453125,9.881169319152832,1.4437036514282227,-0.608127236366272
1760285886116066800,2.82906689453125,9.850045204162598,1.4628572463989258,-0.5793967843055725
1760285886126067000,2.83906689453125,9.766247749328613,1.4413094520568848,-0.5434837937355042
1760285886146067000,2.85906689453125,9.65372085571289,1.2521674633026123,-0.4620809257030487
1760285886156066800,2.86906689453125,9.718363761901855,1.2641384601593018,-0.44532153010368347
1760285886166067000,2.87906689453125,9.787796020507812,1.2976573705673218,-0.45010992884635925
1760285886176066800,2.88906689453125,9.790189743041992,1.3096283674240112,-0.4668693244457245
1760285886186067000,2.89906689453125,9.708786964416504,1.2880805730819702,-0.4405331015586853
1760285886196066800,2.90906689453125,9.572318077087402,1.2665326595306396,-0.3926490843296051
1760285886206067000,2.91906689453125,9.505280494689941,1.2306196689605713,-0.3926490843296051
1760285886216066800,2.92906689453125,9.56274127960205,1.2282254695892334,-0.48602294921875
1760285886226067000,2.93906689453125,9.560346603393555,1.2497732639312744,-0.5506663918495178
1760285886236066800,2.94906689453125,9.5531644821167,1.2066776752471924,-0.49559974670410156
1760285886246067000,2.95906689453125,9.452607154846191,1.1228805780410767,-0.4118026793003082
1760285886256066800,2.96906689453125,9.3735990524292,1.1851298809051514,-0.3471592366695404
1760285886266067000,2.97906689453125,9.397541046142578,1.2234370708465576,-0.3758896589279175
1760285886276066800,2.98906689453125,9.596260070800781,1.1516109704971313,-0.3711012601852417
1760285886286067000,2.99906689453125,9.936236381530762,1.1348515748977661,-0.36152446269989014
1760285886296066800,3.00906689453125,10.201992988586426,0.993593692779541,-0.3495534360408783
1760285886306067000,3.01906689453125,10.094253540039062,1.0534487962722778,-0.31124621629714966
1760285886316066800,3.02906689453125,9.651326179504395,1.0797849893569946,-0.33518823981285095
1760285886326067000,3.03906689453125,9.304166793823242,1.1300631761550903,-0.26575639843940735
1760285886336066800,3.04906689453125,9.021651268005371,1.3192051649093628,-0.33758243918418884
1760285886346067000,3.05906689453125,9.287407875061035,2.449268341064453,-1.3623007535934448
1760285886366067000,3.07906689453125,9.945813179016113,1.5083470344543457,-1.1085153818130493
1760285886376066800,3.08906689453125,9.873987197875977,1.5203180313110352,-0.8882488012313843
1760285886386067000,3.09906689453125,9.510068893432617,1.482010841369629,-0.730231523513794
1760285886396066800,3.10906689453125,9.201216697692871,1.3503297567367554,-0.5889736413955688
1760285886406067000,3.11906689453125,9.280224800109863,1.290474772453308,-0.5410895943641663
1760285886416066800,3.12906689453125,9.601048469543457,1.2689268589019775,-0.49559974670410156
1760285886426066700,3.139066650390625,9.976937294006348,1.2186486721038818,-0.5626373887062073
1760285886436066800,3.14906689453125,10.19959831237793,1.161187767982483,-0.6177040338516235
1760285886446066700,3.159066650390625,10.221146583557129,1.1563993692398071,-0.5793967843055725
1760285886466066700,3.179066650390625,9.996091842651367,1.1683704853057861,-0.5674257874488831
1760285886486066700,3.199066650390625,9.766247749328613,1.1971008777618408,-0.3663128614425659
1760285886496066800,3.20906689453125,9.62020206451416,1.3048399686813354,-0.4644751250743866
1760285886506066700,3.219066650390625,9.507674217224121,1.3694833517074585,-0.6009446382522583
1760285886516066800,3.22906689453125,9.471760749816895,1.2330138683319092,-0.5267243981361389
1760285886526066700,3.239066650390625,9.672874450683594,1.292868971824646,-0.3687070608139038
1760285886536066800,3.24906689453125,9.821314811706543,1.2880805730819702,-0.4118026793003082
1760285886546066700,3.259066650390625,9.952995300292969,1.1875240802764893,-0.49559974670410156
1760285886556066800,3.26906689453125,10.120590209960938,1.0606313943862915,-0.33997663855552673
1760285886566066700,3.279066650390625,10.218751907348633,1.1061211824417114,-0.2968810200691223
1760285886576066800,3.28906689453125,10.223540306091309,1.0630255937576294,-0.3519476354122162
1760285886586066700,3.299066650390625,10.13974380493164,1.0295066833496094,-0.3926490843296051
1760285886596066800,3.30906689453125,10.024822235107422,1.0893617868423462,-0.3256114423274994
1760285886606066700,3.319066650390625,9.907505989074707,1.1683704853057861,-0.2944868206977844
1760285886616066800,3.32906689453125,9.806949615478516,1.1851298809051514,-0.3758896589279175
1760285886626067000,3.33906689453125,9.71357536315918,1.2018892765045166,-0.4405331015586853
1760285886636066800,3.34906689453125,9.617807388305664,1.2473790645599365,-0.4668693244457245
1760285886646067000,3.35906689453125,9.466972351074219,1.278503656387329,-0.4572925269603729
1760285886656066800,3.36906689453125,9.34965705871582,1.2473790645599365,-0.40462008118629456
1760285886666067000,3.37906689453125,9.265859603881836,1.2258312702178955,-0.38067805767059326
1760285886676066800,3.38906689453125,9.263465881347656,1.1827356815338135,-0.3256114423274994
1760285886686066700,3.399066650390625,9.337685585021973,1.1468225717544556,-0.2777273952960968
1760285886696066800,3.40906689453125,9.435848236083984,1.1420341730117798,-0.2968810200691223
1760285886706066700,3.419066650390625,9.510068893432617,1.1348515748977661,-0.33039984107017517
1760285886716066800,3.42906689453125,9.581894874572754,1.1755530834197998,-0.4118026793003082
1760285886726066700,3.439066650390625,9.601048469543457,1.213860273361206,-0.47644615173339844
1760285886736066800,3.44906689453125,9.572318077087402,1.256955862045288,-0.5386953949928284
1760285886746066700,3.459066650390625,9.545981407165527,1.292868971824646,-0.5123591423034668
1760285886756066800,3.46906689453125,9.464578628540039,1.2449848651885986,-0.47405192255973816
1760285886766066700,3.479066650390625,9.428665161132812,1.2282254695892334,-0.3902548849582672
1760285886776066800,3.48906689453125,9.423876762390137,1.2042834758758545,-0.3232172429561615
1760285886786066700,3.499066650390625,9.469367027282715,1.1635819673538208,-0.3232172429561615
1760285886796066800,3.50906689453125,9.534010887145996,1.1683704853057861,-0.36152446269989014
1760285886806066700,3.519066650390625,9.646537780761719,1.2210428714752197,-0.37828385829925537
1760285886816066800,3.52906689453125,9.766247749328613,1.2473790645599365,-0.3974374830722809
1760285886826066700,3.539066650390625,9.814131736755371,1.2306196689605713,-0.40940847992897034
1760285886836066800,3.54906689453125,9.823708534240723,1.216254472732544,-0.4692635238170624
1760285886846066700,3.559066650390625,9.806949615478516,1.259350061416626,-0.5147533416748047
1760285886856066800,3.56906689453125,9.785401344299316,1.2952631711959839,-0.47405192255973816
1760285886866066700,3.579066650390625,9.783007621765137,1.2713210582733154,-0.3998316824436188
1760285886876066800,3.58906689453125,9.761459350585938,1.2665326595306396,-0.40222588181495667
1760285886886067000,3.59906689453125,9.737517356872559,1.2521674633026123,-0.35913026332855225
1760285886896066800,3.60906689453125,9.739912033081055,1.2545616626739502,-0.35434186458587646
1760285886906067000,3.61906689453125,9.818920135498047,1.278503656387329,-0.35673606395721436
1760285886916066800,3.62906689453125,9.912294387817383,1.2545616626739502,-0.3902548849582672
1760285886926066700,3.639066650390625,9.967360496520996,1.2545616626739502,-0.4620809257030487
1760285886936066800,3.64906689453125,9.998485565185547,1.280897855758667,-0.4644751250743866
1760285886946066700,3.659066650390625,9.943418502807617,1.2713210582733154,-0.48602294921875
1760285886956066800,3.66906689453125,9.897929191589355,1.2545616626739502,-0.47884035110473633
1760285886966066700,3.679066650390625,9.857227325439453,1.2401964664459229,-0.44532153010368347
1760285886976066800,3.68906689453125,9.821314811706543,1.2401964664459229,-0.4405331015586853
1760285886986066700,3.699066650390625,9.756670951843262,1.2330138683319092,-0.4692635238170624
1760285886996066800,3.70906689453125,9.706393241882324,1.2258312702178955,-0.5195417404174805
1760285887006066700,3.719066650390625,9.658509254455566,1.256955862045288,-0.5195417404174805
1760285887016066800,3.72906689453125,9.601048469543457,1.2497732639312744,-0.5123591423034668
1760285887026066700,3.739066650390625,9.581894874572754,1.278503656387329,-0.5554547905921936
1760285887036066800,3.74906689453125,9.58907699584961,1.2425906658172607,-0.5147533416748047
1760285887046066700,3.759066650390625,9.68005657196045,1.2210428714752197,-0.4572925269603729
1760285887056066800,3.76906689453125,9.749488830566406,1.1971008777618408,-0.4644751250743866
1760285887066066700,3.779066650390625,9.751882553100586,1.1659762859344482,-0.4596867263317108
1760285887076066800,3.78906689453125,9.715970039367676,1.1875240802764893,-0.4836287498474121
1760285887086066700,3.799066650390625,9.694421768188477,1.2234370708465576,-0.5171475410461426
1760285887096066800,3.80906689453125,9.641749382019043,1.2330138683319092,-0.5171475410461426
1760285887106066700,3.819066650390625,9.603442192077637,1.2449848651885986,-0.47884035110473633
1760285887116066800,3.82906689453125,9.560346603393555,1.2306196689605713,-0.42616790533065796
1760285887126067000,3.83906689453125,9.536404609680176,1.194706678390503,-0.3711012601852417
1760285887136066800,3.84906689453125,9.555558204650879,1.194706678390503,-0.3687070608139038
1760285887146067000,3.85906689453125,9.591471672058105,1.1755530834197998,-0.42856210470199585
1760285887156066800,3.86906689453125,9.6896333694458,1.1827356815338135,-0.4118026793003082
1760285887166067000,3.87906689453125,9.739912033081055,1.1779472827911377,-0.3687070608139038
1760285887176066800,3.88906689453125,9.68005657196045,1.1444283723831177,-0.40462008118629456
1760285887186066700,3.899066650390625,9.65611457824707,1.1492167711257935,-0.3902548849582672
1760285887196066800,3.90906689453125,9.706393241882324,1.170764684677124,-0.3878606855869293
1760285887206066700,3.919066650390625,9.797372817993164,1.1779472827911377,-0.38546648621559143
1760285887216066800,3.92906689453125,9.83568000793457,1.1779472827911377,-0.4189853072166443
1760285887226066700,3.939066650390625,9.80455493927002,1.1827356815338135,-0.40701428055763245
1760285887236066800,3.94906689453125,9.708786964416504,1.2114660739898682,-0.363918662071228
1760285887246067000,3.95906689453125,9.577106475830078,1.2425906658172607,-0.35434186458587646
1760285887256066800,3.96906689453125,9.514857292175293,1.2425906658172607,-0.3280056416988373
1760285887266067000,3.97906689453125,9.524434089660645,1.2856862545013428,-0.3256114423274994
1760285887276066800,3.98906689453125,9.493309020996094,1.3527239561080933,-0.3902548849582672
1760285887286067000,3.99906689453125,9.581894874572754,1.3431471586227417,-0.47405192255973816
1760285887296066800,4.00906689453125,9.555558204650879,1.338358759880066,-0.524330198764801
1760285887306067000,4.01906689453125,9.572318077087402,1.3479355573654175,-0.5913678407669067
1760285887316066800,4.02906689453125,9.502885818481445,1.3551181554794312,-0.6536170840263367
1760285887326067000,4.03906689453125,9.40951156616211,1.4101848602294922,-0.6967126727104187
1760285887336066800,4.04906689453125,9.366415977478027,1.4101848602294922,-0.7015010714530945
1760285887346067000,4.05906689453125,9.38317584991455,1.3838485479354858,-0.6392518281936646
1760285887356066800,4.06906689453125,9.507674217224121,1.3503297567367554,-0.6272808313369751
1760285887366067000,4.07906689453125,9.658509254455566,1.237802267074585,-0.608127236366272
1760285887376066800,4.08906689453125,9.792584419250488,1.2330138683319092,-0.5746083855628967
1760285887386067000,4.09906689453125,9.89553451538086,1.1540051698684692,-0.545877993106842
1760285887396066800,4.10906689453125,9.914688110351562,1.094150185585022,-0.5482721924781799
1760285887406067000,4.11906689453125,9.890746116638184,1.0534487962722778,-0.5386953949928284
1760285887416066800,4.12906689453125,9.85962200164795,1.0271124839782715,-0.5099649429321289
1760285887426067000,4.13906689453125,9.862015724182129,1.0247182846069336,-0.4405331015586853
1760285887436066800,4.14906689453125,9.938630104064941,1.0893617868423462,-0.45489832758903503
1760285887446067000,4.15906689453125,9.967360496520996,1.1252747774124146,-0.5099649429321289
1760285887456066800,4.16906689453125,9.941024780273438,1.1468225717544556,-0.5602431893348694
1760285887466067000,4.17906689453125,9.883563995361328,1.1803414821624756,-0.5961562395095825
1760285887476066800,4.18906689453125,9.778219223022461,1.2210428714752197,-0.6057330369949341
1760285887486067000,4.19906689453125,9.727940559387207,1.2330138683319092,-0.5530605912208557
1760285887496066800,4.20906689453125,9.68005657196045,1.1899182796478271,-0.5147533416748047
1760285887506067000,4.21906689453125,9.663297653198242,1.1683704853057861,-0.5003881454467773
1760285887516066800,4.22906689453125,9.651326179504395,1.1755530834197998,-0.47884035110473633
1760285887526067000,4.23906689453125,9.624990463256836,1.1468225717544556,-0.44532153010368347
1760285887536066800,4.24906689453125,9.627384185791016,1.137245774269104,-0.4189853072166443
1760285887546066700,4.259066650390625,9.694421768188477,1.161187767982483,-0.40701428055763245
1760285887556066800,4.26906689453125,9.761459350585938,1.1563993692398071,-0.45010992884635925
1760285887566066700,4.279066650390625,9.794978141784668,1.170764684677124,-0.5171475410461426
1760285887576066800,4.28906689453125,9.794978141784668,1.192312479019165,-0.5554547905921936
1760285887586066700,4.299066650390625,9.792584419250488,1.216254472732544,-0.586579442024231
1760285887596066800,4.30906689453125,9.759065628051758,1.2210428714752197,-0.6200982332229614
1760285887606066700,4.319066650390625,9.74470043182373,1.256955862045288,-0.629675030708313
1760285887616066800,4.32906689453125,9.68005657196045,1.2737152576446533,-0.6751648783683777
1760285887626067000,4.33906689453125,9.651326179504395,1.2449848651885986,-0.6488286852836609
1760285887636066800,4.34906689453125,9.670479774475098,1.2761094570159912,-0.6224924325942993
1760285887646067000,4.35906689453125,9.682451248168945,1.2473790645599365,-0.6871358752250671
1760285887656066800,4.36906689453125,9.766247749328613,1.2258312702178955,-0.706289529800415
1760285887666067000,4.37906689453125,9.998485565185547,1.2066776752471924,-0.6416460275650024
1760285887676066800,4.38906689453125,10.180444717407227,1.2306196689605713,-0.6512228846549988
1760285887686066700,4.399066650390625,10.297760963439941,1.2234370708465576,-0.6775590777397156
1760285887696066800,4.40906689453125,10.113407135009766,1.170764684677124,-0.5722141861915588
1760285887706066700,4.419066650390625,10.010457038879395,1.213860273361206,-0.45489832758903503
1760285887716066800,4.42906689453125,9.878775596618652,1.170764684677124,-0.3734954595565796
1760285887726066700,4.439066650390625,9.854833602905273,1.1204863786697388,-0.30885201692581177
1760285887736066800,4.44906689453125,9.833285331726074,1.1755530834197998,-0.31364041566848755
1760285887746066700,4.459066650390625,9.534010887145996,1.2689268589019775,-0.3519476354122162
1760285887756066800,4.46906689453125,9.28261947631836,1.2976573705673218,-0.42616790533065796
1760285887766066700,4.479066650390625,9.07911205291748,1.3120225667953491,-0.4596867263317108
1760285887776066800,4.48906689453125,9.002497673034668,1.2976573705673218,-0.4429273009300232
1760285887786066700,4.499066650390625,9.069535255432129,1.3096283674240112,-0.44771572947502136
1760285887796066800,4.50906689453125,9.217975616455078,1.2545616626739502,-0.4908113479614258
1760285887806066700,4.519066650390625,9.414299964904785,1.2306196689605713,-0.5315127968788147
1760285887816066800,4.52906689453125,9.574711799621582,1.2210428714752197,-0.5434837937355042
1760285887826066700,4.539066650390625,9.639355659484863,1.216254472732544,-0.5027823448181152
1760285887836066800,4.54906689453125,9.646537780761719,1.1803414821624756,-0.507570743560791
1760285887846066700,4.559066650390625,9.639355659484863,1.1635819673538208,-0.47644615173339844
1760285887856066800,4.56906689453125,9.603442192077637,1.1516109704971313,-0.4644751250743866
1760285887866066700,4.579066650390625,9.603442192077637,1.192312479019165,-0.4836287498474121
1760285887876066800,4.58906689453125,9.636960983276367,1.2018892765045166,-0.4620809257030487
1760285887886066700,4.599066650390625,9.692028045654297,1.2282254695892334,-0.49559974670410156
1760285887896066800,4.60906689453125,9.699210166931152,1.2234370708465576,-0.47405192255973816
1760285887906067000,4.61906689453125,9.727940559387207,1.2473790645599365,-0.47644615173339844
1760285887916066800,4.62906689453125,9.799766540527344,1.237802267074585,-0.5267243981361389
1760285887926066700,4.639066650390625,9.873987197875977,1.2497732639312744,-0.524330198764801
1760285887936066800,4.64906689453125,9.917082786560059,1.2497732639312744,-0.5003881454467773
1760285887946066700,4.659066650390625,9.897929191589355,1.2473790645599365,-0.49799394607543945
1760285887956066800,4.66906689453125,9.821314811706543,1.237802267074585,-0.3974374830722809
1760285887966066700,4.679066650390625,9.742305755615234,1.235408067703247,-0.4141969084739685
1760285887976066800,4.68906689453125,9.67766284942627,1.2114660739898682,-0.42616790533065796
1760285887986066700,4.699066650390625,9.687239646911621,1.2114660739898682,-0.3926490843296051
1760285887996066800,4.70906689453125,9.708786964416504,1.2018892765045166,-0.38307225704193115
1760285888006066700,4.719066650390625,9.739912033081055,1.1755530834197998,-0.3519476354122162
1760285888016066800,4.72906689453125,9.76864242553711,1.1899182796478271,-0.3280056416988373
1760285888026066700,4.739066650390625,9.735123634338379,1.2066776752471924,-0.33039984107017517
1760285888036066800,4.74906689453125,9.699210166931152,1.2330138683319092,-0.35434186458587646
1760285888046066700,4.759066650390625,9.68005657196045,1.2282254695892334,-0.40462008118629456
1760285888056066800,4.76906689453125,9.71357536315918,1.2545616626739502,-0.4165911078453064
1760285888066066700,4.779066650390625,9.763854026794434,1.2832920551300049,-0.42377370595932007
1760285888076066800,4.78906689453125,9.83807373046875,1.2665326595306396,-0.4357447028160095
1760285888086066700,4.799066650390625,9.866804122924805,1.2641384601593018,-0.45250412821769714
1760285888096066800,4.80906689453125,9.811738014221191,1.2617442607879639,-0.5027823448181152
1760285888106066700,4.819066650390625,9.814131736755371,1.2641384601593018,-0.4836287498474121
1760285888116066800,4.82906689453125,9.794978141784668,1.2545616626739502,-0.4141969084739685
1760285888126066700,4.839066650390625,9.754277229309082,1.2114660739898682,-0.40701428055763245
1760285888136066800,4.84906689453125,9.735123634338379,1.1779472827911377,-0.33518823981285095
1760285888146066700,4.859066650390625,9.735123634338379,1.1540051698684692,-0.2992752194404602
1760285888156066800,4.86906689453125,9.581894874572754,1.192312479019165,-0.3208230137825012
1760285888166066700,4.879066650390625,9.098265647888184,1.280897855758667,-0.4357447028160095
1760285888176066800,4.88906689453125,9.292196273803711,1.3239935636520386,-0.4836287498474121
1760285888186066700,4.899066650390625,9.433453559875488,1.2641384601593018,-0.4596867263317108
1760285888196066800,4.90906689453125,9.67766284942627,1.1492167711257935,-0.44771572947502136
1760285888206066700,4.919066650390625,9.900322914123535,1.0319008827209473,-0.38307225704193115
1760285888216066800,4.92906689453125,10.032004356384277,1.0007762908935547,-0.3423708379268646
1760285888226066700,4.939066650390625,9.948206901550293,1.0630255937576294,-0.33279404044151306
1760285888236066800,4.94906689453125,9.816526412963867,1.1037269830703735,-0.40462008118629456
1760285888246066700,4.959066650390625,9.771036148071289,1.137245774269104,-0.4357447028160095
1760285888256066800,4.96906689453125,9.751882553100586,1.1492167711257935,-0.3471592366695404
1760285888266066700,4.979066650390625,9.708786964416504,1.1659762859344482,-0.33997663855552673
1760285888276066800,4.98906689453125,9.617807388305664,1.1683704853057861,-0.33039984107017517
1760285888286066700,4.999066650390625,9.466972351074219,1.1875240802764893,-0.3280056416988373
1760285888296066800,5.00906689453125,9.375992774963379,1.2401964664459229,-0.3423708379268646
1760285888306066700,5.019066650390625,9.359233856201172,1.2689268589019775,-0.33518823981285095
1760285888316066800,5.02906689453125,9.423876762390137,1.3000515699386597,-0.4381389021873474
1760285888326066700,5.039066650390625,9.545981407165527,1.3000515699386597,-0.5003881454467773
1760285888336066800,5.04906689453125,9.703998565673828,1.2761094570159912,-0.4620809257030487
1760285888346066700,5.059066650390625,9.771036148071289,1.2234370708465576,-0.3926490843296051
1760285888356066800,5.06906689453125,9.80455493927002,1.158793568611145,-0.35673606395721436
1760285888366066700,5.079066650390625,9.754277229309082,1.1540051698684692,-0.3256114423274994
1760285888376066800,5.08906689453125,9.696816444396973,1.158793568611145,-0.3280056416988373
1760285888386066700,5.099066650390625,9.613018989562988,1.1971008777618408,-0.3878606855869293
1760285888396066800,5.10906689453125,9.603442192077637,1.256955862045288,-0.4429273009300232
1760285888406066700,5.119066650390625,9.670479774475098,1.314416766166687,-0.4572925269603729
1760285888416066800,5.12906689453125,9.78061294555664,1.280897855758667,-0.40940847992897034
1760285888426066700,5.139066650390625,9.938630104064941,1.2258312702178955,-0.3926490843296051
1760285888436066800,5.14906689453125,10.058341026306152,1.2018892765045166,-0.3711012601852417
1760285888446066700,5.159066650390625,10.07509994506836,1.1875240802764893,-0.3711012601852417
1760285888456066800,5.16906689453125,10.05115795135498,1.1779472827911377,-0.36152446269989014
1760285888466066700,5.179066650390625,9.964966773986816,1.173158884048462,-0.40222588181495667
1760285888476066800,5.18906689453125,9.902717590332031,1.1994950771331787,-0.3711012601852417
1760285888486066700,5.199066650390625,9.917082786560059,1.2234370708465576,-0.3687070608139038
1760285888496066800,5.20906689453125,9.914688110351562,1.235408067703247,-0.33518823981285095
1760285888506066700,5.219066650390625,9.83807373046875,1.213860273361206,-0.5027823448181152
1760285888516066800,5.22906689453125,9.682451248168945,1.256955862045288,-0.5386953949928284
1760285888536066800,5.24906689453125,9.572318077087402,1.3239935636520386,-0.4812345504760742
1760285888546066700,5.259066650390625,9.603442192077637,1.2689268589019775,-0.4405331015586853
1760285888556066800,5.26906689453125,9.62020206451416,1.2210428714752197,-0.45250412821769714
1760285888566066700,5.279066650390625,9.62020206451416,1.2425906658172607,-0.42616790533065796
1760285888576066800,5.28906689453125,9.629778861999512,1.259350061416626,-0.4189853072166443
1760285888586066700,5.299066650390625,9.577106475830078,1.259350061416626,-0.45489832758903503
1760285888596066800,5.30906689453125,9.519645690917969,1.2641384601593018,-0.5219359993934631
1760285888606066700,5.319066650390625,9.522039413452148,1.2617442607879639,-0.524330198764801
1760285888616066800,5.32906689453125,9.56274127960205,1.292868971824646,-0.5195417404174805
1760285888626066700,5.339066650390625,9.58668327331543,1.2713210582733154,-0.5315127968788147
1760285888636066800,5.34906689453125,9.596260070800781,1.2880805730819702,-0.507570743560791
1760285888646066700,5.359066650390625,9.541193008422852,1.2832920551300049,-0.5195417404174805
1760285888656066800,5.36906689453125,9.478943824768066,1.292868971824646,-0.5051765441894531
1760285888666066700,5.379066650390625,9.445425033569336,1.280897855758667,-0.49799394607543945
1760285888676066800,5.38906689453125,9.486125946044922,1.2545616626739502,-0.42856210470199585
1760285888686066700,5.399066650390625,9.584288597106934,1.1803414821624756,-0.3663128614425659
1760285888696066800,5.40906689453125,9.624990463256836,1.1492167711257935,-0.35913026332855225
1760285888706066700,5.419066650390625,9.658509254455566,1.139639973640442,-0.3256114423274994
1760285888716066800,5.42906689453125,9.699210166931152,1.1516109704971313,-0.3280056416988373
1760285888726066700,5.439066650390625,9.718363761901855,1.1635819673538208,-0.3495534360408783
1760285888736066800,5.44906689453125,9.76864242553711,1.1827356815338135,-0.3902548849582672
1760285888746066700,5.459066650390625,9.730335235595703,1.2066776752471924,-0.44771572947502136
1760285888756066800,5.46906689453125,9.727940559387207,1.216254472732544,-0.44532153010368347
1760285888766066700,5.479066650390625,9.759065628051758,1.216254472732544,-0.4213795065879822
1760285888776066800,5.48906689453125,9.80455493927002,1.1683704853057861,-0.3687070608139038
1760285888786066700,5.499066650390625,9.866804122924805,1.139639973640442,-0.31842881441116333
1760285888796066800,5.50906689453125,9.89314079284668,1.1468225717544556,-0.33039984107017517
1760285888806066700,5.519066650390625,9.87159252166748,1.216254472732544,-0.3734954595565796
1760285888816066800,5.52906689453125,9.775824546813965,1.278503656387329,-0.43335050344467163
1760285888826066700,5.539066650390625,9.725546836853027,1.2952631711959839,-0.4405331015586853
1760285888836066800,5.54906689453125,9.708786964416504,1.3024457693099976,-0.4644751250743866
1760285888846066700,5.559066650390625,9.761459350585938,1.2976573705673218,-0.4668693244457245
1760285888856066800,5.56906689453125,9.881169319152832,1.256955862045288,-0.4381389021873474
1760285888866066700,5.579066650390625,10.012850761413574,1.2521674633026123,-0.4381389021873474
1760285888876066800,5.58906689453125,10.053552627563477,1.2330138683319092,-0.4405331015586853
1760285888886066700,5.599066650390625,10.027215957641602,1.216254472732544,-0.3974374830722809
1760285888896066800,5.60906689453125,8.638579368591309,0.9744400978088379,-0.47644615173339844
1760285888906066700,5.619066650390625,9.524434089660645,1.5131354331970215,-0.17477671802043915
1760285888916066800,5.62906689453125,9.797372817993164,1.4700398445129395,-0.28969839215278625
1760285888926066700,5.639066650390625,9.629778861999512,1.173158884048462,-0.6799532771110535
1760285888936066800,5.64906689453125,9.617807388305664,1.1204863786697388,-0.5937620401382446
1760285888946066700,5.659066650390625,9.639355659484863,1.2066776752471924,-0.33518823981285095
1760285888956066800,5.66906689453125,9.65372085571289,1.1994950771331787,-0.33758243918418884
1760285888966066700,5.679066650390625,9.672874450683594,1.1779472827911377,-0.47644615173339844
1760285888976066800,5.68906689453125,9.701604843139648,1.2018892765045166,-0.6224924325942993
1760285888986066700,5.699066650390625,9.739912033081055,1.2473790645599365,-0.6967126727104187
1760285888996066800,5.70906689453125,9.74470043182373,1.2713210582733154,-0.727837324142456
1760285889006066700,5.719066650390625,9.773430824279785,1.259350061416626,-0.6607996821403503
1760285889016066800,5.72906689453125,9.735123634338379,1.2282254695892334,-0.5913678407669067
1760285889026066700,5.739066650390625,9.68005657196045,1.173158884048462,-0.5315127968788147
1760285889036066800,5.74906689453125,9.65611457824707,1.1516109704971313,-0.4644751250743866
1760285889046066700,5.759066650390625,9.675268173217773,1.1563993692398071,-0.4213795065879822
1760285889056066800,5.76906689453125,9.6896333694458,1.1324573755264282,-0.47884035110473633
1760285889066066700,5.779066650390625,9.720758438110352,1.1516109704971313,-0.524330198764801
1760285889076066800,5.78906689453125,9.754277229309082,1.1827356815338135,-0.5434837937355042
1760285889086066700,5.799066650390625,9.775824546813965,1.1899182796478271,-0.5123591423034668
1760285889096066800,5.80906689453125,9.783007621765137,1.1085153818130493,-0.4381389021873474
1760285889106066700,5.819066650390625,9.799766540527344,1.072602391242981,-0.3758896589279175
1760285889116066800,5.82906689453125,9.80455493927002,1.0797849893569946,-0.3232172429561615
1760285889126066700,5.839066650390625,9.816526412963867,1.036689281463623,-0.304063618183136
1760285889136066800,5.84906689453125,9.811738014221191,1.0749965906143188,-0.31124621629714966
1760285889146066700,5.859066650390625,9.792584419250488,1.139639973640442,-0.395043283700943
1760285889156066800,5.86906689453125,9.857227325439453,1.1420341730117798,-0.40462008118629456
1760285889166066700,5.879066650390625,9.988908767700195,1.0869675874710083,-0.40701428055763245
1760285889176066800,5.88906689453125,9.749488830566406,1.213860273361206,-0.272938996553421
1760285889186066700,5.899066650390625,9.481337547302246,1.2880805730819702,-0.2106897532939911
1760285889196066800,5.90906689453125,9.344868659973145,1.2689268589019775,-0.35913026332855225
1760285889206066700,5.919066650390625,9.38317584991455,1.235408067703247,-0.38067805767059326
1760285889216066800,5.92906689453125,9.478943824768066,1.2425906658172607,-0.35913026332855225
1760285889226066700,5.939066650390625,9.560346603393555,1.2761094570159912,-0.395043283700943
1760285889236066800,5.94906689453125,9.658509254455566,1.2665326595306396,-0.4668693244457245
1760285889246066700,5.959066650390625,9.756670951843262,1.3024457693099976,-0.5123591423034668
1760285889256066800,5.96906689453125,9.797372817993164,1.3024457693099976,-0.5123591423034668
1760285889266066700,5.979066650390625,9.78061294555664,1.2737152576446533,-0.5003881454467773
1760285889276066800,5.98906689453125,9.742305755615234,1.259350061416626,-0.5363011956214905
1760285889286066700,5.999066650390625,9.675268173217773,1.256955862045288,-0.5171475410461426
1760285889296066800,6.00906689453125,9.65611457824707,1.2449848651885986,-0.4908113479614258
1760285889306066700,6.019066650390625,9.644144058227539,1.259350061416626,-0.49320554733276367
1760285889316066800,6.02906689453125,9.699210166931152,1.2617442607879639,-0.47405192255973816
1760285889326066700,6.039066650390625,9.759065628051758,1.2521674633026123,-0.47405192255973816
1760285889336066800,6.04906689453125,9.761459350585938,1.2713210582733154,-0.49799394607543945
1760285889346066700,6.059066650390625,9.74470043182373,1.2880805730819702,-0.5267243981361389
1760285889356066800,6.06906689453125,9.737517356872559,1.3000515699386597,-0.5602431893348694
1760285889366066700,6.079066650390625,8.152556419372559,0.8882488012313843,-0.5674257874488831
1760285889376066800,6.08906689453125,9.423876762390137,1.381454348564148,-0.15083470940589905
1760285889386066700,6.099066650390625,10.122983932495117,1.3646949529647827,-0.1604115068912506
1760285889396066800,6.10906689453125,9.816526412963867,1.1755530834197998,-0.6153098344802856
1760285889406066700,6.119066650390625,9.706393241882324,1.0271124839782715,-0.5889736413955688
1760285889416066800,6.12906689453125,9.65372085571289,1.0582371950149536,-0.33279404044151306
1760285889426066700,6.139066650390625,9.613018989562988,1.1300631761550903,-0.23942017555236816
1760285889436066800,6.14906689453125,9.648932456970215,1.1851298809051514,-0.3256114423274994
1760285889446066700,6.159066650390625,9.660902976989746,1.2018892765045166,-0.4620809257030487
1760285889456066800,6.16906689453125,9.68005657196045,1.2234370708465576,-0.5554547905921936
1760285889466066700,6.179066650390625,9.727940559387207,1.2545616626739502,-0.5817909836769104
1760285889476066800,6.18906689453125,9.74470043182373,1.2641384601593018,-0.5482721924781799
1760285889486066700,6.199066650390625,9.749488830566406,1.2665326595306396,-0.5482721924781799
1760285889496066800,6.20906689453125,9.682451248168945,1.290474772453308,-0.5530605912208557
1760285889506066700,6.219066650390625,9.62020206451416,1.2713210582733154,-0.5506663918495178
1760285889516066800,6.22906689453125,9.608230590820312,1.237802267074585,-0.545877993106842
1760285889526066700,6.239066650390625,9.675268173217773,1.2210428714752197,-0.5339069962501526
1760285889536066800,6.24906689453125,9.794978141784668,1.2066776752471924,-0.4884171485900879
1760285889546066700,6.259066650390625,9.833285331726074,1.173158884048462,-0.5171475410461426
1760285889556066800,6.26906689453125,9.826103210449219,1.161187767982483,-0.5410895943641663
1760285889566066700,6.279066650390625,9.818920135498047,1.161187767982483,-0.5051765441894531
1760285889576066800,6.28906689453125,9.790189743041992,1.1875240802764893,-0.5099649429321289
1760285889586066700,6.299066650390625,9.787796020507812,1.1851298809051514,-0.49320554733276367
1760285889596066800,6.30906689453125,9.742305755615234,1.158793568611145,-0.43335050344467163
1760285889606066700,6.319066650390625,9.67766284942627,1.115697979927063,-0.40701428055763245
1760285889616066800,6.32906689453125,9.644144058227539,1.0965443849563599,-0.3711012601852417
1760285889626066700,6.339066650390625,9.658509254455566,1.1013327836990356,-0.3447650372982025
1760285889636066800,6.34906689453125,9.703998565673828,1.0893617868423462,-0.3519476354122162
1760285889646066700,6.359066650390625,9.76864242553711,1.1085153818130493,-0.33758243918418884
1760285889656066800,6.36906689453125,9.787796020507812,1.0965443849563599,-0.3447650372982025
1760285889666067000,6.37906689453125,9.85962200164795,1.0582371950149536,-0.31603461503982544
1760285889676066800,6.38906689453125,9.938630104064941,1.0438719987869263,-0.23942017555236816
1760285889686066700,6.399066650390625,9.96257209777832,1.0821791887283325,-0.2561795711517334
1760285889696066800,6.40906689453125,9.89314079284668,1.1300631761550903,-0.3687070608139038
1760285889706066700,6.419066650390625,9.799766540527344,1.173158884048462,-0.4357447028160095
1760285889716066800,6.42906689453125,9.771036148071289,1.194706678390503,-0.47644615173339844
1760285889726066700,6.439066650390625,9.792584419250488,1.173158884048462,-0.47884035110473633
1760285889736066800,6.44906689453125,9.818920135498047,1.0869675874710083,-0.38307225704193115
1760285889746066700,6.459066650390625,9.708786964416504,1.1468225717544556,-0.272938996553421
1760285889756066800,6.46906689453125,9.526827812194824,1.216254472732544,-0.3256114423274994
1760285889766066700,6.479066650390625,9.364022254943848,1.2234370708465576,-0.4213795065879822
1760285889776066800,6.48906689453125,9.404723167419434,1.235408067703247,-0.4429273009300232
1760285889786066700,6.499066650390625,9.517251014709473,1.2689268589019775,-0.5219359993934631
1760285889796066800,6.50906689453125,9.694421768188477,1.2713210582733154,-0.5985504388809204
1760285889806066700,6.519066650390625,9.842862129211426,1.2737152576446533,-0.5913678407669067
1760285889816066800,6.52906689453125,9.847650527954102,1.2713210582733154,-0.5386953949928284
1760285889826066700,6.539066650390625,9.756670951843262,1.2282254695892334,-0.5003881454467773
1760285889836066800,6.54906689453125,9.639355659484863,1.235408067703247,-0.4908113479614258
1760285889846066700,6.559066650390625,9.584288597106934,1.2330138683319092,-0.4118026793003082
1760285889856066800,6.56906689453125,9.579500198364258,1.2497732639312744,-0.4213795065879822
1760285889866066700,6.579066650390625,9.596260070800781,1.3000515699386597,-0.5099649429321289
1760285889876066800,6.58906689453125,9.624990463256836,1.3024457693099976,-0.5554547905921936
1760285889886067000,6.59906689453125,9.684844970703125,1.278503656387329,-0.5386953949928284
1760285889896066800,6.60906689453125,9.742305755615234,1.2689268589019775,-0.4596867263317108
1760285889906067000,6.61906689453125,9.711181640625,1.235408067703247,-0.4141969084739685
1760285889916066800,6.62906689453125,9.675268173217773,1.1899182796478271,-0.42377370595932007
1760285889926066700,6.639066650390625,9.692028045654297,1.216254472732544,-0.43335050344467163
1760285889936066800,6.64906689453125,9.761459350585938,1.2018892765045166,-0.43095630407333374
1760285889946066700,6.659066650390625,9.783007621765137,1.2186486721038818,-0.4118026793003082
1760285889956066800,6.66906689453125,9.759065628051758,1.1971008777618408,-0.42377370595932007
1760285889966066700,6.679066650390625,9.723152160644531,1.1755530834197998,-0.45010992884635925
1760285889976066800,6.68906689453125,9.703998565673828,1.1827356815338135,-0.4429273009300232
1760285889986066700,6.699066650390625,9.660902976989746,1.192312479019165,-0.4596867263317108
1760285889996066800,6.70906689453125,9.629778861999512,1.1683704853057861,-0.4141969084739685
1760285890006066700,6.719066650390625,9.62259578704834,1.1779472827911377,-0.3926490843296051
1760285890016066800,6.72906689453125,9.598653793334961,1.1779472827911377,-0.395043283700943
1760285890026066700,6.739066650390625,9.574711799621582,1.2090718746185303,-0.5027823448181152
1760285890036066800,6.74906689453125,9.567529678344727,1.2330138683319092,-0.5913678407669067
1760285890046066700,6.759066650390625,9.672874450683594,1.2665326595306396,-0.5267243981361389
1760285890056066800,6.76906689453125,9.814131736755371,1.1899182796478271,-0.5003881454467773
1760285890066066700,6.779066650390625,9.905111312866211,1.113303780555725,-0.49799394607543945
1760285890076066800,6.78906689453125,9.92905330657959,1.0989385843276978,-0.4165911078453064
1760285890086066700,6.799066650390625,9.900322914123535,1.0797849893569946,-0.35673606395721436
1760285890096066800,6.80906689453125,9.737517356872559,1.1204863786697388,-0.2849099934101105
1760285890106066700,6.819066650390625,9.603442192077637,1.1252747774124146,-0.31364041566848755
1760285890116066800,6.82906689453125,9.584288597106934,1.1420341730117798,-0.35434186458587646
1760285890126066700,6.839066650390625,9.737517356872559,1.1444283723831177,-0.3758896589279175
1760285890136066800,6.84906689453125,9.900322914123535,1.139639973640442,-0.3663128614425659
1760285890146066700,6.859066650390625,9.854833602905273,1.1540051698684692,-0.4572925269603729
1760285890156066800,6.86906689453125,9.739912033081055,1.161187767982483,-0.5123591423034668
1760285890166066700,6.879066650390625,9.577106475830078,1.194706678390503,-0.47884035110473633
1760285890176066800,6.88906689453125,9.536404609680176,1.1851298809051514,-0.29209262132644653
1760285890186066700,6.899066650390625,9.500492095947266,1.1875240802764893,-0.22026655077934265
1760285890196066800,6.90906689453125,9.411906242370605,1.194706678390503,-0.24899697303771973
1760285890206066700,6.919066650390625,9.411906242370605,1.2282254695892334,-0.24899697303771973
1760285890216066800,6.92906689453125,9.601048469543457,1.2617442607879639,-0.33039984107017517
1760285890226066700,6.939066650390625,10.053552627563477,1.2497732639312744,-0.45250412821769714
1760285890236066800,6.94906689453125,10.180444717407227,1.2665326595306396,-0.40701428055763245
1760285890246066700,6.959066650390625,10.099041938781738,1.3742717504501343,-0.35913026332855225
1760285890256066800,6.96906689453125,9.914688110351562,1.3551181554794312,-0.38307225704193115
1760285890266066700,6.979066650390625,9.466972351074219,1.3096283674240112,-0.38546648621559143
1760285890276066800,6.98906689453125,9.22515869140625,1.357512354850769,-0.4572925269603729
1760285890286066700,6.999066650390625,9.004891395568848,1.4508862495422363,-0.5602431893348694
1760285890296066800,7.00906689453125,8.758289337158203,1.5275006294250488,-0.6392518281936646
1760285890306066700,7.019066650390625,8.676886558532715,1.6160861253738403,-0.6919242739677429
1760285890316066800,7.02906689453125,8.842085838317871,1.625662922859192,-0.7709329724311829
1760285890326066700,7.039066650390625,9.325715065002441,1.5179238319396973,-0.7852981686592102
1760285890336066800,7.04906689453125,9.914688110351562,1.1420341730117798,-0.5339069962501526
1760285890346066700,7.059066650390625,10.35522174835205,1.1013327836990356,-0.33279404044151306
1760285890356066800,7.06906689453125,10.482114791870117,1.256955862045288,-0.28730419278144836
1760285890366066700,7.079066650390625,10.41507625579834,1.3479355573654175,-0.507570743560791
1760285890376066800,7.08906689453125,10.19959831237793,1.3838485479354858,-0.7110779285430908
1760285890406066700,7.119066650390625,9.356839179992676,1.259350061416626,-0.5770025849342346
1760285890426066700,7.139066650390625,9.423876762390137,1.139639973640442,-0.42616790533065796
1760285890446066700,7.159066650390625,9.682451248168945,1.0893617868423462,-0.43335050344467163
1760285890456066800,7.16906689453125,9.809343338012695,1.1061211824417114,-0.40701428055763245
1760285890466066700,7.179066650390625,9.8691987991333,1.1085153818130493,-0.40940847992897034
1760285890476066800,7.18906689453125,9.890746116638184,1.0893617868423462,-0.38546648621559143
1760285890486066700,7.199066650390625,9.964966773986816,1.0749965906143188,-0.3232172429561615
1760285890496066800,7.20906689453125,10.024822235107422,1.0462661981582642,-0.2298433631658554
1760285890506066700,7.219066650390625,10.032004356384277,1.0055646896362305,-0.19632454216480255
1760285890516066800,7.22906689453125,9.89314079284668,1.0031704902648926,-0.24660277366638184
1760285890536066800,7.24906689453125,9.574711799621582,1.1468225717544556,-0.35434186458587646
1760285890546066700,7.259066650390625,9.545981407165527,1.2114660739898682,-0.3711012601852417
1760285890556066800,7.26906689453125,9.601048469543457,1.2210428714752197,-0.38307225704193115
1760285890566066700,7.279066650390625,9.672874450683594,1.2042834758758545,-0.45250412821769714
1760285890576066800,7.28906689453125,9.76864242553711,1.170764684677124,-0.47405192255973816
1760285890586066700,7.299066650390625,9.80216121673584,1.1755530834197998,-0.4668693244457245
1760285890596066800,7.30906689453125,9.756670951843262,1.2042834758758545,-0.507570743560791
1760285890606066700,7.319066650390625,9.682451248168945,1.259350061416626,-0.5123591423034668
1760285890616066800,7.32906689453125,9.632172584533691,1.256955862045288,-0.4908113479614258
1760285890626066700,7.339066650390625,9.560346603393555,1.2258312702178955,-0.4812345504760742
1760285890636066800,7.34906689453125,9.510068893432617,1.2090718746185303,-0.4357447028160095
1760285890646066700,7.359066650390625,9.44063663482666,1.1779472827911377,-0.3519476354122162
1760285890656066800,7.36906689453125,9.426271438598633,1.1492167711257935,-0.2777273952960968
1760285890666066700,7.379066650390625,9.510068893432617,1.1252747774124146,-0.272938996553421
1760285890676066800,7.38906689453125,9.627384185791016,1.1252747774124146,-0.33039984107017517
1760285890686066700,7.399066650390625,9.751882553100586,1.1683704853057861,-0.38307225704193115
1760285890696066800,7.40906689453125,9.80216121673584,1.170764684677124,-0.395043283700943
1760285890706066700,7.419066650390625,9.787796020507812,1.1875240802764893,-0.4213795065879822
1760285890716066800,7.42906689453125,9.742305755615234,1.158793568611145,-0.37828385829925537
1760285890726066700,7.439066650390625,9.670479774475098,1.1468225717544556,-0.4812345504760742
1760285890736066800,7.44906689453125,9.67766284942627,1.2282254695892334,-0.5386953949928284
1760285890746066700,7.459066650390625,9.711181640625,1.280897855758667,-0.5578489899635315
1760285890756066800,7.46906689453125,9.720758438110352,1.2832920551300049,-0.5410895943641663
1760285890766066700,7.479066650390625,9.715970039367676,1.2545616626739502,-0.5123591423034668
1760285890776066800,7.48906689453125,9.754277229309082,1.2210428714752197,-0.4812345504760742
1760285890786066700,7.499066650390625,9.78061294555664,1.2066776752471924,-0.4118026793003082
1760285890796066800,7.50906689453125,9.847650527954102,1.1827356815338135,-0.3998316824436188
1760285890806066700,7.519066650390625,9.878775596618652,1.1803414821624756,-0.38546648621559143
1760285890816066800,7.52906689453125,9.900322914123535,1.1516109704971313,-0.3232172429561615
1760285890826066700,7.539066650390625,9.89314079284668,1.1444283723831177,-0.31603461503982544
1760285890836066800,7.54906689453125,9.902717590332031,1.1204863786697388,-0.33039984107017517
1760285890846066700,7.559066650390625,9.854833602905273,1.1563993692398071,-0.33279404044151306
1760285890856066800,7.56906689453125,9.759065628051758,1.1516109704971313,-0.37828385829925537
1760285890866066700,7.579066650390625,9.665691375732422,1.1540051698684692,-0.4118026793003082
1760285890886066700,7.599066650390625,9.632172584533691,1.1875240802764893,-0.3734954595565796
1760285890896066800,7.60906689453125,9.687239646911621,1.1779472827911377,-0.3758896589279175
1760285890906066700,7.619066650390625,9.732728958129883,1.170764684677124,-0.4118026793003082
1760285890926066700,7.639066650390625,9.701604843139648,1.1779472827911377,-0.4644751250743866
1760285890936066800,7.64906689453125,9.718363761901855,1.1683704853057861,-0.47165772318840027
1760285890946066700,7.659066650390625,9.751882553100586,1.1659762859344482,-0.43335050344467163
1760285890956066800,7.66906689453125,9.74470043182373,1.1276689767837524,-0.3926490843296051
1760285890966066700,7.679066650390625,9.76864242553711,1.1085153818130493,-0.37828385829925537
1760285890976066800,7.68906689453125,9.826103210449219,1.1348515748977661,-0.38067805767059326
1760285890986066700,7.699066650390625,9.8691987991333,1.1540051698684692,-0.3734954595565796
1760285891006066700,7.719066650390625,9.80216121673584,1.1755530834197998,-0.4644751250743866
1760285891016066800,7.72906689453125,9.725546836853027,1.2066776752471924,-0.5195417404174805
1760285891026066700,7.739066650390625,9.613018989562988,1.2449848651885986,-0.5147533416748047
1760285891036066800,7.74906689453125,9.548376083374023,1.2521674633026123,-0.5003881454467773
1760285891046066700,7.759066650390625,9.419088363647461,1.2617442607879639,-0.44532153010368347
1760285891056066800,7.76906689453125,9.172486305236816,1.2473790645599365,-0.4812345504760742
1760285891066066700,7.779066650390625,9.112630844116211,1.3239935636520386,-0.44532153010368347
1760285891076066800,7.78906689453125,9.16769790649414,1.3192051649093628,-0.4357447028160095
1760285891086066700,7.799066650390625,9.323320388793945,1.280897855758667,-0.4836287498474121
1760285891096066800,7.80906689453125,9.610625267028809,1.213860273361206,-0.44532153010368347
1760285891106066700,7.819066650390625,9.864410400390625,1.1276689767837524,-0.3902548849582672
1760285891116066800,7.82906689453125,10.065523147583008,1.0199298858642578,-0.3998316824436188
1760285891126066700,7.839066650390625,10.173262596130371,1.0319008827209473,-0.524330198764801
1760285891136066800,7.84906689453125,10.309731483459473,1.0247182846069336,-0.5793967843055725
1760285891146066700,7.859066650390625,10.23072338104248,1.2018892765045166,-0.3878606855869293
1760285891156066800,7.86906689453125,10.082283020019531,1.2425906658172607,-0.2777273952960968
1760285891166066700,7.879066650390625,9.909899711608887,1.1444283723831177,-0.31124621629714966
1760285891176066800,7.88906689453125,9.864410400390625,1.1204863786697388,-0.33997663855552673
1760285891186066700,7.899066650390625,9.847650527954102,1.1540051698684692,-0.3423708379268646
1760285891196066800,7.90906689453125,9.816526412963867,1.2497732639312744,-0.38546648621559143
1760285891206066700,7.919066650390625,9.821314811706543,1.2665326595306396,-0.4381389021873474
1760285891216066800,7.92906689453125,9.792584419250488,1.2665326595306396,-0.43335050344467163
1760285891226066700,7.939066650390625,9.783007621765137,1.259350061416626,-0.44532153010368347
1760285891236066800,7.94906689453125,9.763854026794434,1.2665326595306396,-0.45010992884635925
1760285891246066700,7.959066650390625,9.751882553100586,1.2330138683319092,-0.44532153010368347
1760285891256066800,7.96906689453125,9.739912033081055,1.237802267074585,-0.4189853072166443
1760285891266066700,7.979066650390625,9.672874450683594,1.2282254695892334,-0.3998316824436188
1760285891276066800,7.98906689453125,9.605836868286133,1.2066776752471924,-0.40940847992897034
1760285891286066700,7.999066650390625,9.56274127960205,1.192312479019165,-0.38546648621559143
1760285891296066800,8.00906689453125,9.577106475830078,1.1563993692398071,-0.3471592366695404
1760285891306066700,8.019066650390625,9.569923400878906,1.1635819673538208,-0.363918662071228
1760285891316066800,8.02906689453125,9.598653793334961,1.1276689767837524,-0.38067805767059326
1760285891326066700,8.039066650390625,9.648932456970215,1.139639973640442,-0.4165911078453064
1760285891336066800,8.04906689453125,9.699210166931152,1.1444283723831177,-0.4213795065879822
1760285891346066700,8.059066650390625,9.759065628051758,1.113303780555725,-0.4165911078453064
1760285891356066800,8.06906689453125,9.749488830566406,1.0797849893569946,-0.4165911078453064
1760285891366066700,8.079066650390626,9.735123634338379,1.0678139925003052,-0.4357447028160095
1760285891376066800,8.08906689453125,9.687239646911621,1.0845733880996704,-0.37828385829925537
1760285891386066700,8.099066650390625,9.648932456970215,1.094150185585022,-0.33039984107017517
1760285891396066800,8.10906689453125,9.651326179504395,1.115697979927063,-0.33518823981285095
1760285891406066700,8.119066650390625,9.663297653198242,1.115697979927063,-0.3902548849582672
1760285891416066800,8.12906689453125,9.735123634338379,1.161187767982483,-0.45010992884635925
1760285891426066700,8.139066650390625,9.833285331726074,1.173158884048462,-0.4596867263317108
1760285891446066700,8.159066650390624,9.996091842651367,1.113303780555725,-0.42616790533065796
1760285891456066800,8.16906689453125,10.034399032592773,1.0989385843276978,-0.35913026332855225
1760285891466066700,8.179066650390626,10.032004356384277,1.0534487962722778,-0.31842881441116333
1760285891476066800,8.18906689453125,10.01524543762207,1.05105459690094,-0.31124621629714966
1760285891486066700,8.199066650390625,9.924264907836914,1.0438719987869263,-0.3974374830722809
1760285891496066800,8.20906689453125,9.8691987991333,1.1276689767837524,-0.4836287498474121
1760285891506066700,8.219066650390625,9.766247749328613,1.237802267074585,-0.5315127968788147
1760285891516066800,8.22906689453125,9.739912033081055,1.2641384601593018,-0.545877993106842
1760285891526066700,8.239066650390624,9.74709415435791,1.259350061416626,-0.49559974670410156
1760285891536066800,8.24906689453125,9.78061294555664,1.2306196689605713,-0.44771572947502136
1760285891546066700,8.259066650390626,9.842862129211426,1.2234370708465576,-0.3926490843296051
1760285891556066800,8.26906689453125,9.80216121673584,1.1779472827911377,-0.3998316824436188
1760285891566066700,8.279066650390625,9.76864242553711,1.235408067703247,-0.4118026793003082
1760285891576066800,8.28906689453125,9.725546836853027,1.2521674633026123,-0.4644751250743866
1760285891596066800,8.30906689453125,9.641749382019043,1.3096283674240112,-0.4644751250743866
1760285891606066700,8.319066650390624,9.665691375732422,1.2761094570159912,-0.4118026793003082
1760285891616066800,8.32906689453125,9.725546836853027,1.2042834758758545,-0.395043283700943
1760285891626066700,8.339066650390626,9.823708534240723,1.1444283723831177,-0.31603461503982544
1760285891636066800,8.34906689453125,9.907505989074707,1.1109095811843872,-0.33518823981285095
1760285891646066700,8.359066650390625,9.991303443908691,1.1180921792984009,-0.3519476354122162
1760285891656066800,8.36906689453125,9.979331970214844,1.139639973640442,-0.3711012601852417
1760285891666066700,8.379066650390625,9.933841705322266,1.1348515748977661,-0.3878606855869293
1760285891676066800,8.38906689453125,9.881169319152832,1.1635819673538208,-0.42856210470199585
1760285891686066700,8.399066650390624,9.814131736755371,1.1779472827911377,-0.42856210470199585
1760285891696066800,8.40906689453125,9.730335235595703,1.2042834758758545,-0.44532153010368347
1760285891706066700,8.419066650390626,9.696816444396973,1.2042834758758545,-0.4620809257030487
1760285891716066800,8.42906689453125,9.658509254455566,1.2258312702178955,-0.4644751250743866
1760285891726066700,8.439066650390625,9.65611457824707,1.213860273361206,-0.4692635238170624
1760285891736066800,8.44906689453125,9.687239646911621,1.2401964664459229,-0.4884171485900879
1760285891746066700,8.459066650390625,9.742305755615234,1.2042834758758545,-0.5147533416748047
1760285891756066800,8.46906689453125,9.763854026794434,1.2497732639312744,-0.5482721924781799
1760285891766066700,8.479066650390624,9.809343338012695,1.2761094570159912,-0.5195417404174805
1760285891776066800,8.48906689453125,9.833285331726074,1.2689268589019775,-0.5339069962501526
1760285891786066700,8.499066650390626,9.847650527954102,1.2689268589019775,-0.524330198764801
1760285891796066800,8.50906689453125,9.8691987991333,1.290474772453308,-0.5722141861915588
1760285891806066700,8.519066650390625,9.828496932983398,1.3096283674240112,-0.646434485912323
1760285891816066800,8.52906689453125,9.799766540527344,1.3646949529647827,-0.667982280254364
1760285891826066700,8.539066650390625,9.78061294555664,1.3694833517074585,-0.6248866319656372
1760285891836066800,8.54906689453125,9.732728958129883,1.3694833517074585,-0.5051765441894531
1760285891846066700,8.559066650390625,9.639355659484863,1.3096283674240112,-0.43335050344467163
1760285891856066800,8.56906689453125,9.541193008422852,1.2880805730819702,-0.33758243918418884
1760285891866066700,8.579066650390626,9.462183952331543,1.2880805730819702,-0.3208230137825012
1760285891876066800,8.58906689453125,9.493309020996094,1.290474772453308,-0.31842881441116333
1760285891886066700,8.599066650390625,9.615413665771484,1.2713210582733154,-0.4141969084739685
1760285891896066800,8.60906689453125,9.821314811706543,1.2497732639312744,-0.4429273009300232
1760285891906066700,8.619066650390625,10.046369552612305,1.235408067703247,-0.4189853072166443
1760285891916066800,8.62906689453125,10.149320602416992,1.216254472732544,-0.47405192255973816
1760285891926066700,8.639066650390625,10.156502723693848,1.194706678390503,-0.5003881454467773
1760285891936066800,8.64906689453125,10.067917823791504,1.213860273361206,-0.49320554733276367
1760285891946066700,8.659066650390624,9.964966773986816,1.2282254695892334,-0.47644615173339844
1760285891956066800,8.66906689453125,9.866804122924805,1.2066776752471924,-0.45010992884635925
1760285891966066700,8.679066650390626,9.842862129211426,1.2066776752471924,-0.38546648621559143
1760285891976066800,8.68906689453125,9.756670951843262,1.1899182796478271,-0.35913026332855225
1760285891986066700,8.699066650390625,9.71357536315918,1.2282254695892334,-0.3208230137825012
1760285891996066800,8.70906689453125,9.699210166931152,1.237802267074585,-0.3423708379268646
1760285892006066700,8.719066650390625,9.699210166931152,1.259350061416626,-0.31842881441116333
1760285892016066800,8.72906689453125,9.692028045654297,1.280897855758667,-0.3423708379268646
1760285892026066700,8.739066650390624,9.687239646911621,1.3192051649093628,-0.40222588181495667
1760285892036066800,8.74906689453125,9.699210166931152,1.3287819623947144,-0.44532153010368347
1760285892046066700,8.759066650390626,9.785401344299316,1.3742717504501343,-0.4668693244457245
1760285892056066800,8.76906689453125,9.857227325439453,1.3958195447921753,-0.42856210470199585
1760285892066066700,8.779066650390625,9.914688110351562,1.3886369466781616,-0.3926490843296051
1760285892076066800,8.78906689453125,9.9865140914917,1.400607943534851,-0.28969839215278625
1760285892086066700,8.799066650390625,7.214028835296631,1.3048399686813354,-0.7350199222564697
1760285892096066800,8.80906689453125,8.576330184936523,1.7046716213226318,0.16998831927776337
1760285892106066700,8.819066650390624,8.415918350219727,1.7860745191574097,-0.22505496442317963
1760285892116066800,8.82906689453125,8.638579368591309,1.0295066833496094,-0.12210428714752197
1760285892126066700,8.839066650390626,9.514857292175293,0.7541735172271729,0.42377370595932007
1760285892136066800,8.84906689453125,9.78061294555664,0.7374141216278076,0.47644615173339844
1760285892146066700,8.859066650390625,9.89314079284668,0.7134721279144287,0.1173158809542656
1760285892156066800,8.86906689453125,9.955389976501465,0.7326257228851318,-0.20111294090747833
1760285892166066700,8.879066650390625,10.1660795211792,0.7876923680305481,-0.4884171485900879
1760285892176066800,8.88906689453125,10.486903190612793,0.8643068075180054,-0.7038952708244324
1760285892186066700,8.899066650390624,10.68562126159668,0.9409212470054626,-0.8212111592292786
1760285892196066800,8.90906689453125,10.812514305114746,1.0223240852355957,-0.9888052940368652
1760285892206066700,8.919066650390626,10.68562126159668,1.070208191871643,-1.0319008827209473
1760285892216066800,8.92906689453125,10.453383445739746,1.1683704853057861,-0.9696516990661621
1760285892226066700,8.939066650390625,10.206781387329102,1.1971008777618408,-0.828393816947937
1760285892236066800,8.94906689453125,10.05115795135498,1.1779472827911377,-0.730231523513794
1760285892246066700,8.959066650390625,9.816526412963867,1.3120225667953491,-0.8475474119186401
1760285892256066800,8.96906689453125,9.579500198364258,1.4700398445129395,-0.9169792532920837
1760285892266066700,8.979066650390624,9.545981407165527,1.5442601442337036,-0.9361328482627869
1760285892276066800,8.98906689453125,9.557952880859375,1.5873557329177856,-0.9241618514060974
1760285892286066700,8.999066650390626,9.670479774475098,1.522712230682373,-0.8930372595787048
1760285892296066800,9.00906689453125,9.87159252166748,1.4915876388549805,-0.9720458984375
1760285892306066700,9.019066650390625,9.991303443908691,1.4437036514282227,-1.0199298858642578
1760285892316066800,9.02906689453125,10.020033836364746,1.4389152526855469,-1.0821791887283325
1760285892326066700,9.039066650390625,10.012850761413574,1.3910311460494995,-1.015141487121582
1760285892336066800,9.04906689453125,9.943418502807617,1.335964560508728,-0.8667010068893433
1760285892346066700,9.059066650390625,9.821314811706543,1.2617442607879639,-0.7757213711738586
1760285892356066800,9.06906689453125,9.658509254455566,1.173158884048462,-0.6823474764823914
1760285892366066700,9.079066650390626,9.543587684631348,1.1252747774124146,-0.5937620401382446
1760285892376066800,9.08906689453125,9.550769805908203,1.139639973640442,-0.5123591423034668
1760285892386066700,9.099066650390625,9.581894874572754,1.1204863786697388,-0.4812345504760742
1760285892396066800,9.10906689453125,9.644144058227539,1.0893617868423462,-0.49559974670410156
1760285892406066700,9.119066650390625,9.651326179504395,1.0319008827209473,-0.44771572947502136
1760285892416066800,9.12906689453125,9.639355659484863,1.0247182846069336,-0.4668693244457245
1760285892426066700,9.139066650390625,9.572318077087402,1.1061211824417114,-0.5578489899635315
1760285892436066800,9.14906689453125,9.65372085571289,1.2114660739898682,-0.5578489899635315
1760285892446066700,9.159066650390624,9.701604843139648,1.2210428714752197,-0.5674257874488831
1760285892456066800,9.16906689453125,9.790189743041992,1.161187767982483,-0.6129156351089478
1760285892466066700,9.179066650390626,9.873987197875977,1.1444283723831177,-0.5602431893348694
1760285892476066800,9.18906689453125,9.847650527954102,1.1037269830703735,-0.5027823448181152
1760285892486066700,9.199066650390625,9.783007621765137,1.072602391242981,-0.47644615173339844
1760285892496066800,9.20906689453125,9.71357536315918,1.0319008827209473,-0.40701428055763245
1760285892506066700,9.219066650390625,9.58907699584961,1.1180921792984009,-0.42856210470199585
1760285892516066800,9.22906689453125,9.555558204650879,1.139639973640442,-0.4572925269603729
1760285892526066700,9.239066650390624,9.545981407165527,1.1779472827911377,-0.4596867263317108
1760285892536066800,9.24906689453125,9.58668327331543,1.2330138683319092,-0.49559974670410156
1760285892546066700,9.259066650390626,9.56274127960205,1.259350061416626,-0.5746083855628967
1760285892556066800,9.26906689453125,9.591471672058105,1.2952631711959839,-0.6009446382522583
1760285892566066700,9.279066650390625,9.624990463256836,1.292868971824646,-0.5578489899635315
1760285892576066800,9.28906689453125,9.703998565673828,1.2856862545013428,-0.6009446382522583
1760285892586066700,9.299066650390625,9.852438926696777,1.290474772453308,-0.6105214357376099
1760285892596066800,9.30906689453125,9.979331970214844,1.316810965538025,-0.5099649429321289
1760285892606066700,9.319066650390624,10.010457038879395,1.3215993642807007,-0.47405192255973816
1760285892616066800,9.32906689453125,10.032004356384277,1.314416766166687,-0.5003881454467773
1760285892626066700,9.339066650390626,9.96257209777832,1.3527239561080933,-0.5506663918495178
1760285892636066800,9.34906689453125,9.905111312866211,1.4437036514282227,-0.5961562395095825
1760285892646066700,9.359066650390625,9.862015724182129,1.53707754611969,-0.6368576288223267
1760285892656066800,9.36906689453125,9.821314811706543,1.5083470344543457,-0.5913678407669067
1760285892666066700,9.379066650390625,9.74470043182373,1.4484920501708984,-0.49320554733276367
1760285892676066800,9.38906689453125,9.718363761901855,1.3838485479354858,-0.4213795065879822
1760285892686066700,9.399066650390624,9.785401344299316,1.3742717504501343,-0.4165911078453064
1760285892696066800,9.40906689453125,9.847650527954102,1.3910311460494995,-0.363918662071228
1760285892706066700,9.419066650390626,9.826103210449219,1.359906554222107,-0.31124621629714966
1760285892716066800,9.42906689453125,9.739912033081055,1.316810965538025,-0.21787235140800476
1760285892726066700,9.439066650390625,9.5531644821167,1.3215993642807007,-0.19393034279346466
1760285892736066800,9.44906689453125,9.390357971191406,1.2952631711959839,-0.038307227194309235
1760285892746066700,9.459066650390625,9.292196273803711,1.3263877630233765,-0.0933738648891449
1760285892756066800,9.46906689453125,9.330503463745117,1.3263877630233765,-0.14604631066322327
1760285892766066700,9.479066650390624,9.323320388793945,1.3192051649093628,-0.2059013396501541
1760285892776066800,9.48906689453125,9.285013198852539,1.3048399686813354,-0.17477671802043915
1760285892786066700,9.499066650390626,9.29458999633789,1.2737152576446533,-0.26096799969673157
1760285892796066800,9.50906689453125,9.450213432312012,1.278503656387329,-0.3998316824436188
1760285892806066700,9.519066650390625,9.550769805908203,1.2952631711959839,-0.4405331015586853
1760285892816066800,9.52906689453125,9.624990463256836,1.237802267074585,-0.3663128614425659
1760285892826066700,9.539066650390625,9.665691375732422,1.158793568611145,-0.33997663855552673
1760285892836066800,9.54906689453125,9.806949615478516,1.139639973640442,-0.3471592366695404
1760285892846066700,9.559066650390625,9.909899711608887,1.1300631761550903,-0.3423708379268646
1760285892856066800,9.56906689453125,9.914688110351562,1.1683704853057861,-0.4118026793003082
1760285892866066700,9.579066650390626,9.945813179016113,1.113303780555725,-0.4668693244457245
1760285892876066800,9.58906689453125,9.950601577758789,1.1468225717544556,-0.524330198764801
1760285892886066700,9.599066650390625,9.952995300292969,1.2234370708465576,-0.49799394607543945
1760285892896066800,9.60906689453125,9.948206901550293,1.2306196689605713,-0.4884171485900879
1760285892906066700,9.619066650390625,9.857227325439453,1.2497732639312744,-0.5363011956214905
1760285892916066800,9.62906689453125,9.761459350585938,1.2713210582733154,-0.5123591423034668
1760285892926066700,9.639066650390625,9.696816444396973,1.316810965538025,-0.4357447028160095
1760285892936066800,9.64906689453125,9.699210166931152,1.2880805730819702,-0.3687070608139038
1760285892946066700,9.659066650390624,9.737517356872559,1.292868971824646,-0.2968810200691223
1760285892956066800,9.66906689453125,9.699210166931152,1.3120225667953491,-0.3902548849582672
1760285892966066700,9.679066650390626,9.668086051940918,1.3886369466781616,-0.43095630407333374
1760285892976066800,9.68906689453125,9.687239646911621,1.4053963422775269,-0.49320554733276367
1760285892986066700,9.699066650390625,9.692028045654297,1.3862427473068237,-0.4812345504760742
1760285892996066800,9.70906689453125,9.718363761901855,1.3886369466781616,-0.5099649429321289
1760285893006066700,9.719066650390625,9.718363761901855,1.414973258972168,-0.49799394607543945
1760285893016066800,9.72906689453125,9.787796020507812,1.4101848602294922,-0.49320554733276367
1760285893026066700,9.739066650390624,9.89314079284668,1.381454348564148,-0.43095630407333374
1760285893036066800,9.74906689453125,9.943418502807617,1.338358759880066,-0.3758896589279175
1760285893046066700,9.759066650390626,9.998485565185547,1.2306196689605713,-0.37828385829925537
1760285893056066800,9.76906689453125,9.790189743041992,1.3958195447921753,-0.4884171485900879
1760285893066066700,9.779066650390625,9.68005657196045,1.436521053314209,-0.42377370595932007
1760285893076066800,9.78906689453125,9.596260070800781,1.3670891523361206,-0.3758896589279175
1760285893086066700,9.799066650390625,9.577106475830078,1.3263877630233765,-0.3280056416988373
1760285893096066800,9.80906689453125,9.505280494689941,1.3287819623947144,-0.3208230137825012
1760285893106066700,9.819066650390624,9.493309020996094,1.3742717504501343,-0.31364041566848755
1760285893116066800,9.82906689453125,9.572318077087402,1.2976573705673218,-0.33758243918418884
1760285893126066700,9.839066650390626,9.720758438110352,1.2761094570159912,-0.3447650372982025
1760285893136066800,9.84906689453125,9.83807373046875,1.2425906658172607,-0.272938996553421
1760285893146066700,9.859066650390625,9.816526412963867,1.1899182796478271,-0.24660277366638184
1760285893156066800,9.86906689453125,9.608230590820312,1.2665326595306396,-0.35434186458587646
1760285893166066700,9.879066650390625,9.464578628540039,1.3048399686813354,-0.40940847992897034
1760285893176066800,9.88906689453125,9.512462615966797,1.3072341680526733,-0.40462008118629456
1760285893186066700,9.899066650390624,9.660902976989746,1.2401964664459229,-0.3208230137825012
1760285893196066800,9.90906689453125,9.737517356872559,1.2066776752471924,-0.27054479718208313
1760285893206066700,9.919066650390626,9.699210166931152,1.2090718746185303,-0.26096799969673157
1760285893216066800,9.92906689453125,9.634567260742188,1.256955862045288,-0.28730419278144836
1760285893226066700,9.939066650390625,9.572318077087402,1.2545616626739502,-0.304063618183136
1760285893236066800,9.94906689453125,9.526827812194824,1.316810965538025,-0.2753331959247589
1760285893246066700,9.959066650390625,9.555558204650879,1.2952631711959839,-0.33039984107017517
1760285893266066700,9.979066650390624,9.833285331726074,1.2976573705673218,-0.3280056416988373
1760285893276066800,9.98906689453125,9.85962200164795,1.2880805730819702,-0.26815059781074524
1760285893286066700,9.999066650390626,9.785401344299316,1.2880805730819702,-0.2849099934101105
1760285893296066800,10.00906689453125,9.682451248168945,1.2665326595306396,-0.27054479718208313
1760285893306066700,10.019066650390625,9.668086051940918,1.2976573705673218,-0.272938996553421
1760285893316066800,10.02906689453125,9.670479774475098,1.2856862545013428,-0.2849099934101105
1760285893326066700,10.039066650390625,9.703998565673828,1.2713210582733154,-0.24420857429504395
1760285893336066800,10.04906689453125,9.711181640625,1.2617442607879639,-0.21308395266532898
1760285893346066700,10.059066650390625,9.725546836853027,1.259350061416626,-0.24181437492370605
1760285893356066800,10.06906689453125,9.76864242553711,1.2282254695892334,-0.2944868206977844
1760285893366066700,10.079066650390626,9.830891609191895,1.259350061416626,-0.3447650372982025
1760285893376066800,10.08906689453125,9.866804122924805,1.335964560508728,-0.363918662071228
1760285893386066700,10.099066650390625,9.76864242553711,1.3646949529647827,-0.3064578175544739
1760285893396066800,10.10906689453125,9.636960983276367,1.3431471586227417,-0.31842881441116333
1760285893406066700,10.119066650390625,9.579500198364258,1.3335703611373901,-0.33518823981285095
1760285893416066800,10.12906689453125,9.615413665771484,1.3287819623947144,-0.3471592366695404
1760285893426066700,10.139066650390625,9.766247749328613,1.3000515699386597,-0.33279404044151306
1760285893436066800,10.14906689453125,9.921871185302734,1.3000515699386597,-0.33997663855552673
1760285893446066700,10.159066650390624,10.032004356384277,1.2880805730819702,-0.31124621629714966
1760285893456066800,10.16906689453125,10.103830337524414,1.2617442607879639,-0.33039984107017517
1760285893466066700,10.179066650390626,10.120590209960938,1.2545616626739502,-0.304063618183136
1760285893476066800,10.18906689453125,10.060734748840332,1.3239935636520386,-0.31364041566848755
1760285893486066700,10.199066650390625,10.043975830078125,1.359906554222107,-0.3495534360408783
1760285893496066800,10.20906689453125,9.950601577758789,1.4077905416488647,-0.37828385829925537
1760285893506066700,10.219066650390625,9.83568000793457,1.4748282432556152,-0.4189853072166443
1760285893516066800,10.22906689453125,9.682451248168945,1.5131354331970215,-0.45010992884635925
1760285893526066700,10.239066650390624,9.608230590820312,1.4724340438842773,-0.4165911078453064
1760285893536066800,10.24906689453125,9.47654914855957,1.482010841369629,-0.38067805767059326
1760285893546066700,10.259066650390626,9.337685585021973,1.4389152526855469,-0.16519992053508759
1760285893556066800,10.26906689453125,9.361627578735352,1.3455413579940796,-0.090979665517807
1760285893566066700,10.279066650390625,9.44303035736084,1.3455413579940796,-0.15801730751991272
1760285893576066800,10.28906689453125,9.605836868286133,1.3239935636520386,-0.19393034279346466
1760285893586066700,10.299066650390625,9.739912033081055,1.359906554222107,-0.15801730751991272
1760285893596066800,10.30906689453125,9.809343338012695,1.3431471586227417,-0.11252748221158981
1760285893606066700,10.319066650390624,9.792584419250488,1.290474772453308,-0.09816227108240128
1760285893616066800,10.32906689453125,9.773430824279785,1.2689268589019775,-0.0694318488240242
1760285893636066800,10.34906689453125,9.62259578704834,1.3263877630233765,-0.0933738648891449
1760285893646066700,10.359066650390625,9.514857292175293,1.381454348564148,-0.17717093229293823
1760285893656066800,10.36906689453125,9.462183952331543,1.4437036514282227,-0.181959331035614
1760285893666066700,10.379066650390625,9.426271438598633,1.4437036514282227,-0.19632454216480255
1760285893686066700,10.399066650390624,9.423876762390137,1.50355863571167,-0.26336219906806946
1760285893696066800,10.40906689453125,9.536404609680176,1.4748282432556152,-0.22026655077934265
1760285893716066800,10.42906689453125,9.76864242553711,1.3407529592514038,-0.13168109953403473
1760285893726066700,10.439066650390625,9.83807373046875,1.3000515699386597,-0.07182604819536209
1760285893736066800,10.44906689453125,9.833285331726074,1.292868971824646,-0.10295066982507706
1760285893746066700,10.459066650390625,9.739912033081055,1.3239935636520386,-0.1867477297782898
1760285893756066800,10.46906689453125,9.663297653198242,1.4221558570861816,-0.26096799969673157
1760285893766066700,10.479066650390624,9.574711799621582,1.4963760375976562,-0.2585737705230713
1760285893776066800,10.48906689453125,9.536404609680176,1.5083470344543457,-0.24420857429504395
1760285893786066700,10.499066650390626,9.538799285888672,1.4628572463989258,-0.16998831927776337
1760285893796066800,10.50906689453125,9.608230590820312,1.4173674583435059,-0.08858546614646912
1760285893806066700,10.519066650390625,9.675268173217773,1.4053963422775269,-0.0454898327589035
1760285893826066700,10.539066650390625,9.78061294555664,1.4772224426269531,-0.24660277366638184
1760285893846066700,10.559066650390625,9.742305755615234,1.6041151285171509,-0.3758896589279175
1760285893856066800,10.56906689453125,9.718363761901855,1.599326729774475,-0.38546648621559143
1760285893866066700,10.579066650390626,9.723152160644531,1.5682021379470825,-0.35434186458587646
1760285893876066800,10.58906689453125,9.761459350585938,1.556231141090393,-0.3256114423274994
1760285893886066700,10.599066650390625,9.83807373046875,1.501164436340332,-0.2968810200691223
1760285893896066800,10.60906689453125,9.866804122924805,1.479616641998291,-0.2968810200691223
1760285893906066700,10.619066650390625,9.878775596618652,1.4460978507995605,-0.2849099934101105
1760285893916066800,10.62906689453125,9.761459350585938,1.4508862495422363,-0.2298433631658554
1760285893926066700,10.639066650390625,8.940248489379883,1.4293384552001953,0.15322890877723694
1760285893936066800,10.64906689453125,9.845256805419922,1.4389152526855469,-0.3208230137825012
1760285893946066700,10.659066650390624,9.74709415435791,1.381454348564148,-0.33518823981285095
1760285893956066800,10.66906689453125,9.646537780761719,1.3958195447921753,-0.23942017555236816
1760285893966066700,10.679066650390626,9.850045204162598,1.381454348564148,-0.23942017555236816
1760285893976066800,10.68906689453125,9.83568000793457,1.3886369466781616,-0.2561795711517334
1760285893986066700,10.699066650390625,9.842862129211426,1.3503297567367554,-0.17477671802043915
1760285893996066800,10.70906689453125,9.89553451538086,1.359906554222107,-0.16519992053508759
1760285894006066700,10.719066650390625,9.883563995361328,1.335964560508728,-0.13168109953403473
1760285894016066800,10.72906689453125,9.816526412963867,1.3192051649093628,-0.11013327538967133
1760285894026066700,10.739066650390624,9.74709415435791,1.3239935636520386,-0.10055647045373917
1760285894036066800,10.74906689453125,9.71357536315918,1.3670891523361206,-0.15801730751991272
1760285894046066700,10.759066650390626,9.725546836853027,1.4077905416488647,-0.22505496442317963
1760285894056066800,10.76906689453125,9.694421768188477,1.455674648284912,-0.2322375625371933
1760285894066066700,10.779066650390625,9.627384185791016,1.4460978507995605,-0.2298433631658554
1760285894076066800,10.78906689453125,9.560346603393555,1.4245500564575195,-0.19632454216480255
1760285894086066700,10.799066650390625,9.550769805908203,1.4053963422775269,-0.14604631066322327
1760285894096066800,10.80906689453125,9.545981407165527,1.403002142906189,-0.10773907601833344
1760285894106066700,10.819066650390624,9.555558204650879,1.3670891523361206,-0.19393034279346466
1760285894116066800,10.82906689453125,9.557952880859375,1.4173674583435059,-0.22505496442317963
1760285894126066700,10.839066650390626,9.579500198364258,1.4389152526855469,-0.22505496442317963
1760285894136066800,10.84906689453125,9.548376083374023,1.400607943534851,-0.22744916379451752
1760285894146066700,10.859066650390625,9.543587684631348,1.4197616577148438,-0.21547815203666687
1760285894156066800,10.86906689453125,9.569923400878906,1.3910311460494995,-0.2561795711517334
1760285894166066700,10.879066650390625,9.591471672058105,1.414973258972168,-0.22505496442317963
1760285894176066800,10.88906689453125,9.624990463256836,1.3766659498214722,-0.1628057211637497
1760285894186066700,10.899066650390624,9.581894874572754,1.3431471586227417,-0.1388636976480484
1760285894196066800,10.90906689453125,9.548376083374023,1.292868971824646,-0.08379705995321274
1760285894206066700,10.919066650390626,9.488520622253418,1.3096283674240112,-0.2059013396501541
1760285894216066800,10.92906689453125,9.598653793334961,1.3694833517074585,-0.23942017555236816
1760285894226066700,10.939066650390625,9.636960983276367,1.4077905416488647,-0.272938996553421
1760285894236066800,10.94906689453125,9.646537780761719,1.3766659498214722,-0.3016694188117981
1760285894246066700,10.959066650390625,9.771036148071289,1.2952631711959839,-0.22505496442317963
1760285894256066800,10.96906689453125,9.931447982788086,1.2545616626739502,-0.11013327538967133
1760285894266066700,10.979066650390624,10.01524543762207,1.2306196689605713,-0.11252748221158981
1760285894276066800,10.98906689453125,10.043975830078125,1.2066776752471924,-0.12449848651885986
1760285894286066700,10.999066650390626,10.060734748840332,1.2425906658172607,-0.0933738648891449
1760285894296066800,11.00906689453125,10.060734748840332,1.2545616626739502,-0.0933738648891449
1760285894306066700,11.019066650390625,10.087071418762207,1.2952631711959839,-0.1628057211637497
1760285894316066800,11.02906689453125,10.130167007446289,1.2832920551300049,-0.24660277366638184
1760285894326066700,11.039066650390625,10.043975830078125,1.3335703611373901,-0.304063618183136
1760285894336066800,11.04906689453125,9.89314079284668,1.4221558570861816,-0.2777273952960968
1760285894346066700,11.059066650390625,9.821314811706543,1.4748282432556152,-0.2753331959247589
1760285894356066800,11.06906689453125,9.763854026794434,1.45806884765625,-0.20111294090747833
1760285894366066700,11.079066650390626,9.62020206451416,1.357512354850769,-0.10055647045373917
1760285894376066800,11.08906689453125,9.505280494689941,1.357512354850769,-0.31842881441116333
1760285894386066700,11.099066650390625,9.596260070800781,1.4724340438842773,-0.42377370595932007
1760285894396066800,11.10906689453125,9.720758438110352,1.5753847360610962,-0.4381389021873474
1760285894406066700,11.119066650390625,9.797372817993164,1.580173134803772,-0.4357447028160095
1760285894416066800,11.12906689453125,9.826103210449219,1.5729905366897583,-0.4908113479614258
1760285894426066700,11.139066650390625,9.83568000793457,1.5897499322891235,-0.5147533416748047
1760285894436066800,11.14906689453125,9.797372817993164,1.5849615335464478,-0.45489832758903503
1760285894446066700,11.159066650390624,9.725546836853027,1.5658079385757446,-0.4429273009300232
1760285894456066800,11.16906689453125,9.663297653198242,1.5442601442337036,-0.38067805767059326
1760285894466066700,11.179066650390626,9.641749382019043,1.5705963373184204,-0.33758243918418884
1760285894476066800,11.18906689453125,9.584288597106934,1.525106430053711,-0.26575639843940735
1760285894486066700,11.199066650390625,9.593865394592285,1.4915876388549805,-0.17477671802043915
1760285894496066800,11.20906689453125,9.605836868286133,1.3718775510787964,-0.08140286058187485
1760285894506066700,11.219066650390625,9.58907699584961,1.357512354850769,-0.12210428714752197
1760285894516066800,11.22906689453125,9.598653793334961,1.414973258972168,-0.1388636976480484
1760285894526066700,11.239066650390624,9.617807388305664,1.4628572463989258,-0.1604115068912506
1760285894536066800,11.24906689453125,9.62020206451416,1.4508862495422363,-0.1843535304069519
1760285894546066700,11.259066650390626,9.634567260742188,1.4197616577148438,-0.2106897532939911
1760285894556066800,11.26906689453125,9.651326179504395,1.4197616577148438,-0.16759411990642548
1760285894566066700,11.279066650390625,9.670479774475098,1.414973258972168,-0.15322890877723694
1760285894576066800,11.28906689453125,9.660902976989746,1.400607943534851,-0.14844051003456116
1760285894586066700,11.299066650390625,9.651326179504395,1.3766659498214722,-0.11252748221158981
1760285894596066800,11.30906689453125,9.627384185791016,1.3503297567367554,-0.05027823522686958
1760285894606066700,11.319066650390624,9.624990463256836,1.3527239561080933,-0.0933738648891449
1760285894616066800,11.32906689453125,9.639355659484863,1.3718775510787964,-0.1364694982767105
1760285894626066700,11.339066650390626,9.6896333694458,1.45806884765625,-0.21547815203666687
1760285894636066800,11.34906689453125,9.751882553100586,1.4963760375976562,-0.272938996553421
1760285894646066700,11.359066650390625,9.833285331726074,1.5275006294250488,-0.33758243918418884
1760285894656066800,11.36906689453125,9.83807373046875,1.5538369417190552,-0.3423708379268646
1760285894666066700,11.379066650390625,9.80216121673584,1.53707754611969,-0.28969839215278625
1760285894676066800,11.38906689453125,9.735123634338379,1.4963760375976562,-0.20111294090747833
1760285894686066700,11.399066650390624,9.65372085571289,1.4628572463989258,-0.17238251864910126
1760285894696066800,11.40906689453125,9.596260070800781,1.4891934394836426,-0.14844051003456116
1760285894706066700,11.419066650390626,9.593865394592285,1.4748282432556152,-0.1604115068912506
1760285894716066800,11.42906689453125,9.615413665771484,1.4939818382263184,-0.23702596127986908
1760285894726066700,11.439066650390625,9.665691375732422,1.5298948287963867,-0.31124621629714966
1760285894736066800,11.44906689453125,9.761459350585938,1.5275006294250488,-0.3423708379268646
1760285894746066700,11.459066650390625,9.873987197875977,1.525106430053711,-0.3471592366695404
1760285894756066800,11.46906689453125,9.897929191589355,1.5107412338256836,-0.26336219906806946
1760285894766066700,11.479066650390624,9.840468406677246,1.5107412338256836,-0.19871874153614044
1760285894776066800,11.48906689453125,9.720758438110352,1.4891934394836426,-0.16759411990642548
1760285894786066700,11.499066650390626,9.641749382019043,1.4724340438842773,-0.10055647045373917
1760285894796066800,11.50906689453125,8.028057098388672,1.314416766166687,-0.031124621629714966
1760285894806066700,11.519066650390625,9.347262382507324,1.6160861253738403,0.038307227194309235
1760285894816066800,11.52906689453125,9.569923400878906,1.522712230682373,-0.30885201692581177
1760285894826066700,11.539066650390625,9.344868659973145,1.5682021379470825,-0.5937620401382446
1760285894836066800,11.54906689453125,9.560346603393555,1.6496049165725708,-0.47405192255973816
1760285894846066700,11.559066650390625,9.646537780761719,1.5753847360610962,-0.37828385829925537
1760285894856066800,11.56906689453125,9.699210166931152,1.4628572463989258,-0.28730419278144836
1760285894866066700,11.579066650390626,9.830891609191895,1.4293384552001953,-0.2106897532939911
1760285894876066800,11.58906689453125,9.883563995361328,1.3934253454208374,-0.15801730751991272
1760285894886066700,11.599066650390625,9.8691987991333,1.3766659498214722,-0.16998831927776337
1760285894896066800,11.60906689453125,9.816526412963867,1.3838485479354858,-0.24899697303771973
1760285894906066700,11.619066650390625,9.797372817993164,1.4389152526855469,-0.3016694188117981
1760285894916066800,11.62906689453125,9.76864242553711,1.4532804489135742,-0.2968810200691223
1760285894926066700,11.639066650390625,9.763854026794434,1.4652514457702637,-0.2849099934101105
1760285894936066800,11.64906689453125,9.83568000793457,1.482010841369629,-0.26336219906806946
1760285894946066700,11.659066650390624,9.897929191589355,1.525106430053711,-0.31124621629714966
1760285894956066800,11.66906689453125,9.996091842651367,1.5610195398330688,-0.272938996553421
1760285894966066700,11.679066650390626,9.98412036895752,1.53707754611969,-0.3471592366695404
1760285894976066800,11.68906689453125,9.888352394104004,1.5155296325683594,-0.3663128614425659
1760285894986066700,11.699066650390625,9.771036148071289,1.5442601442337036,-0.31364041566848755
1760285894996066800,11.70906689453125,9.67766284942627,1.556231141090393,-0.30885201692581177
1760285895006066700,11.719066650390625,9.660902976989746,1.580173134803772,-0.3208230137825012
1760285895016066800,11.72906689453125,9.692028045654297,1.580173134803772,-0.38067805767059326
1760285895026066700,11.739066650390624,9.754277229309082,1.5825673341751099,-0.395043283700943
1760285895036066800,11.74906689453125,9.818920135498047,1.5394717454910278,-0.31603461503982544
1760285895046066700,11.759066650390626,9.876380920410156,1.4867992401123047,-0.18914192914962769
1760285895056066800,11.76906689453125,9.8691987991333,1.3838485479354858,-0.08140286058187485
1760285895066066700,11.779066650390625,9.847650527954102,1.3455413579940796,-0.08140286058187485
1760285895076066800,11.78906689453125,9.727940559387207,1.3096283674240112,-0.14365209639072418
1760285895086066700,11.799066650390625,9.636960983276367,1.4173674583435059,-0.2346317619085312
1760285895096066800,11.80906689453125,9.524434089660645,1.5203180313110352,-0.3232172429561615
1760285895106066700,11.819066650390624,9.500492095947266,1.5490485429763794,-0.3423708379268646
1760285895116066800,11.82906689453125,9.514857292175293,1.5610195398330688,-0.31364041566848755
1760285895126066700,11.839066650390626,9.581894874572754,1.5466543436050415,-0.3016694188117981
1760285895136066800,11.84906689453125,9.632172584533691,1.522712230682373,-0.24899697303771973
1760285895146066700,11.859066650390625,9.670479774475098,1.5322890281677246,-0.16998831927776337
1760285895156066800,11.86906689453125,9.708786964416504,1.4748282432556152,-0.15562310814857483
1760285895166066700,11.879066650390625,9.701604843139648,1.4389152526855469,-0.0933738648891449
1760285895176066800,11.88906689453125,9.610625267028809,1.3503297567367554,-0.0694318488240242
1760285895186066700,11.899066650390624,9.56274127960205,1.403002142906189,-0.07900865375995636
1760285895196066800,11.90906689453125,9.44303035736084,1.522712230682373,-0.19632454216480255
1760285895206066700,11.919066650390626,9.354445457458496,1.577778935432434,-0.2753331959247589
1760285895216066800,11.92906689453125,9.256282806396484,1.5945383310317993,-0.2753331959247589
1760285895226066700,11.939066650390625,9.251494407653809,1.580173134803772,-0.2801215946674347
1760285895236066800,11.94906689453125,9.364022254943848,1.5753847360610962,-0.24660277366638184
1760285895246066700,11.959066650390625,9.47415542602539,1.5466543436050415,-0.22505496442317963
1760285895256066800,11.96906689453125,9.572318077087402,1.5490485429763794,-0.2298433631658554
1760285895266066700,11.979066650390624,9.648932456970215,1.556231141090393,-0.272938996553421
1760285895276066800,11.98906689453125,9.65611457824707,1.5394717454910278,-0.2777273952960968
1760285895286066700,11.999066650390626,9.636960983276367,1.5849615335464478,-0.2777273952960968
1760285895296066800,12.00906689453125,9.634567260742188,1.5753847360610962,-0.272938996553421
1760285895306066700,12.019066650390625,9.644144058227539,1.5825673341751099,-0.2585737705230713
1760285895316066800,12.02906689453125,9.668086051940918,1.5825673341751099,-0.2322375625371933
1760285895326066700,12.039066650390625,9.71357536315918,1.5514427423477173,-0.2322375625371933
1760285895336066800,12.04906689453125,9.76864242553711,1.53707754611969,-0.2346317619085312
1760285895346066700,12.059066650390625,9.792584419250488,1.5179238319396973,-0.22026655077934265
1760285895356066800,12.06906689453125,9.783007621765137,1.5107412338256836,-0.20111294090747833
1760285895366066700,12.079066650390626,9.794978141784668,1.5155296325683594,-0.17717093229293823
1760285895376066800,12.08906689453125,9.794978141784668,1.525106430053711,-0.2106897532939911
1760285895386066700,12.099066650390625,9.794978141784668,1.5322890281677246,-0.2561795711517334
1760285895396066800,12.10906689453125,9.816526412963867,1.5921441316604614,-0.3064578175544739
1760285895406066700,12.119066650390625,9.873987197875977,1.5849615335464478,-0.2968810200691223
1760285895416066800,12.12906689453125,9.905111312866211,1.577778935432434,-0.2537853717803955
1760285895426066700,12.139066650390625,9.828496932983398,1.525106430053711,-0.14365209639072418
1760285895436066800,12.14906689453125,9.737517356872559,1.4748282432556152,-0.0933738648891449
1760285895446066700,12.159066650390624,9.6896333694458,1.4676456451416016,-0.11252748221158981
1760285895456066800,12.16906689453125,9.646537780761719,1.4987702369689941,-0.1364694982767105
1760285895466066700,12.179066650390626,9.658509254455566,1.534683346748352,-0.16519992053508759
1760285895476066800,12.18906689453125,9.71357536315918,1.5753847360610962,-0.2059013396501541
1760285895486066700,12.199066650390625,8.01848030090332,1.3718775510787964,-0.3974374830722809
1760285895496066800,12.20906689453125,9.584288597106934,1.7142484188079834,0.07182604819536209
1760285895506066700,12.219066650390625,9.323320388793945,1.5083470344543457,-0.13407529890537262
1760285895516066800,12.22906689453125,8.98813247680664,1.656787633895874,-0.40701428055763245
1760285895526066700,12.239066650390624,9.569923400878906,1.4724340438842773,-0.272938996553421
1760285895536066800,12.24906689453125,9.878775596618652,1.3527239561080933,-0.1388636976480484
1760285895546066700,12.259066650390626,10.03918743133545,1.414973258972168,-0.2059013396501541
1760285895556066800,12.26906689453125,9.885957717895508,1.522712230682373,-0.4572925269603729
1760285895566066700,12.279066650390625,9.68005657196045,1.6065093278884888,-0.5722141861915588
1760285895576066800,12.28906689453125,9.488520622253418,1.656787633895874,-0.5267243981361389
1760285895586066700,12.299066650390625,9.428665161132812,1.6208745241165161,-0.47884035110473633
1760285895596066800,12.30906689453125,9.481337547302246,1.5179238319396973,-0.3232172429561615
1760285895606066700,12.319066650390624,9.47654914855957,1.41257905960083,-0.1412578970193863
1760285895616066800,12.32906689453125,9.545981407165527,1.3407529592514038,-0.040701430290937424
1760285895626066700,12.339066650390626,9.560346603393555,1.3263877630233765,-0.05027823522686958
1760285895636066800,12.34906689453125,9.65611457824707,1.3551181554794312,-0.14844051003456116
1760285895646066700,12.359066650390625,9.785401344299316,1.4173674583435059,-0.2801215946674347
1760285895666066700,12.379066650390625,9.907505989074707,1.4987702369689941,-0.40940847992897034
1760285895676066800,12.38906689453125,9.905111312866211,1.4053963422775269,-0.2825157940387726
1760285895686066700,12.399066650390624,9.89553451538086,1.3431471586227417,-0.17477671802043915
1760285895706066700,12.419066650390626,9.778219223022461,1.3646949529647827,-0.15083470940589905
1760285895726066700,12.439066650390625,9.694421768188477,1.3910311460494995,-0.2298433631658554
1760285895736066800,12.44906689453125,9.756670951843262,1.4484920501708984,-0.2992752194404602
1760285895746066700,12.459066650390625,9.828496932983398,1.4963760375976562,-0.4381389021873474
1760285895756066800,12.46906689453125,9.931447982788086,1.5514427423477173,-0.43335050344467163
1760285895766066700,12.479066650390624,9.938630104064941,1.556231141090393,-0.4908113479614258
1760285895776066800,12.48906689453125,9.938630104064941,1.5610195398330688,-0.49320554733276367
1760285895786066700,12.499066650390626,9.864410400390625,1.5394717454910278,-0.4213795065879822
1760285895796066800,12.50906689453125,9.797372817993164,1.4269442558288574,-0.29209262132644653
1760285895806066700,12.519066650390625,9.799766540527344,1.3766659498214722,-0.16759411990642548
1760285895816066800,12.52906689453125,9.783007621765137,1.2880805730819702,-0.13168109953403473
1760285895826066700,12.539066650390625,9.787796020507812,1.2832920551300049,-0.15801730751991272
1760285895836066800,12.54906689453125,9.847650527954102,1.3311761617660522,-0.20350714027881622
1760285895846066700,12.559066650390625,9.948206901550293,1.3766659498214722,-0.3064578175544739
1760285895856066800,12.56906689453125,10.065523147583008,1.4077905416488647,-0.40940847992897034
1760285895866066700,12.579066650390626,10.041581153869629,1.4484920501708984,-0.4141969084739685
1760285895876066800,12.58906689453125,9.972148895263672,1.4460978507995605,-0.3519476354122162
1760285895886066700,12.599066650390625,9.711181640625,1.2186486721038818,-0.0933738648891449
1760285895896066800,12.60906689453125,9.49809741973877,1.4077905416488647,-0.1412578970193863
1760285895906066700,12.619066650390625,9.323320388793945,1.5538369417190552,-0.31603461503982544
1760285895916066800,12.62906689453125,9.237129211425781,1.5753847360610962,-0.42377370595932007
1760285895926066700,12.639066650390625,9.220370292663574,1.5921441316604614,-0.40701428055763245
1760285895936066800,12.64906689453125,9.253889083862305,1.577778935432434,-0.272938996553421
1760285895946066700,12.659066650390624,9.28261947631836,1.4963760375976562,-0.181959331035614
1760285895956066800,12.66906689453125,9.347262382507324,1.4676456451416016,-0.17238251864910126
1760285895966066700,12.679066650390626,9.431059837341309,1.4437036514282227,-0.22266076505184174
1760285895976066800,12.68906689453125,9.579500198364258,1.4484920501708984,-0.28969839215278625
1760285895986066700,12.699066650390625,9.665691375732422,1.4987702369689941,-0.3471592366695404
1760285895996066800,12.70906689453125,9.67766284942627,1.4963760375976562,-0.3471592366695404
1760285896006066700,12.719066650390625,9.65611457824707,1.4724340438842773,-0.304063618183136
1760285896016066800,12.72906689453125,9.646537780761719,1.460463047027588,-0.2059013396501541
1760285896026066700,12.739066650390624,9.634567260742188,1.4413094520568848,-0.13168109953403473
1760285896036066800,12.74906689453125,9.627384185791016,1.4077905416488647,-0.1173158809542656
1760285896046066700,12.759066650390626,9.624990463256836,1.4508862495422363,-0.16759411990642548
1760285896056066800,12.76906689453125,9.71357536315918,1.4939818382263184,-0.24420857429504395
1760285896066066700,12.779066650390625,9.833285331726074,1.4844050407409668,-0.2825157940387726
1760285896076066800,12.78906689453125,9.948206901550293,1.5083470344543457,-0.2106897532939911
1760285896086066700,12.799066650390625,10.070311546325684,1.4293384552001953,-0.17477671802043915
1760285896096066800,12.80906689453125,10.144532203674316,1.4101848602294922,-0.15801730751991272
1760285896106066700,12.819066650390624,10.122983932495117,1.3958195447921753,-0.1173158809542656
1760285896116066800,12.82906689453125,9.936236381530762,1.4413094520568848,-0.13407529890537262
1760285896126066700,12.839066650390626,9.742305755615234,1.4963760375976562,-0.1843535304069519
1760285896136066800,12.84906689453125,9.670479774475098,1.5610195398330688,-0.2322375625371933
1760285896146066700,12.859066650390625,9.65611457824707,1.5873557329177856,-0.19153612852096558
1760285896156066800,12.86906689453125,9.68005657196045,1.556231141090393,-0.1628057211637497
1760285896166066700,12.879066650390625,9.715970039367676,1.5107412338256836,-0.11971008777618408
1760285896176066800,12.88906689453125,9.756670951843262,1.5083470344543457,-0.16519992053508759
1760285896186066700,12.899066650390624,9.809343338012695,1.5394717454910278,-0.19393034279346466
1760285896196066800,12.90906689453125,9.87159252166748,1.5466543436050415,-0.23942017555236816
1760285896206066700,12.919066650390626,9.814131736755371,1.5682021379470825,-0.23942017555236816
1760285896216066800,12.92906689453125,9.615413665771484,1.5179238319396973,-0.16998831927776337
1760285896226066700,12.939066650390625,9.44303035736084,1.4987702369689941,-0.1149216815829277
1760285896236066800,12.94906689453125,9.371204376220703,1.5155296325683594,-0.05506663769483566
1760285896246066700,12.959066650390625,9.40951156616211,1.4891934394836426,-0.05985504388809204
1760285896256066800,12.96906689453125,9.478943824768066,1.4700398445129395,-0.09816227108240128
1760285896266066700,12.979066650390624,9.541193008422852,1.50355863571167,-0.15322890877723694
1760285896276066800,12.98906689453125,9.550769805908203,1.5322890281677246,-0.19871874153614044
1760285896286066700,12.999066650390626,9.598653793334961,1.5179238319396973,-0.22266076505184174
1760285896296066800,13.00906689453125,9.682451248168945,1.5131354331970215,-0.20350714027881622
1760285896306066700,13.019066650390625,9.730335235595703,1.4987702369689941,-0.21308395266532898
1760285896316066800,13.02906689453125,9.68005657196045,1.501164436340332,-0.19871874153614044
1760285896326066700,13.039066650390625,9.591471672058105,1.501164436340332,-0.21787235140800476
1760285896336066800,13.04906689453125,9.512462615966797,1.522712230682373,-0.19632454216480255
1760285896346066700,13.059066650390625,9.514857292175293,1.5418659448623657,-0.17238251864910126
1760285896356066800,13.06906689453125,9.601048469543457,1.5155296325683594,-0.181959331035614
1760285896366066700,13.079066650390626,9.65372085571289,1.50355863571167,-0.20350714027881622
1760285896376066800,13.08906689453125,9.675268173217773,1.522712230682373,-0.1843535304069519
1760285896386066700,13.099066650390625,9.74709415435791,1.482010841369629,-0.1628057211637497
1760285896396066800,13.10906689453125,9.809343338012695,1.436521053314209,-0.181959331035614
1760285896406066700,13.119066650390625,9.907505989074707,1.4676456451416016,-0.15083470940589905
1760285896416066800,13.12906689453125,9.948206901550293,1.5131354331970215,-0.15801730751991272
1760285896426066700,13.139066650390625,9.905111312866211,1.525106430053711,-0.0933738648891449
1760285896436066800,13.14906689453125,9.785401344299316,1.5610195398330688,-0.1412578970193863
1760285896446066700,13.159066650390624,9.62259578704834,1.6112977266311646,-0.17238251864910126
1760285896456066800,13.16906689453125,9.462183952331543,1.647210717201233,-0.18914192914962769
1760285896466066700,13.179066650390626,9.545981407165527,1.678335428237915,-0.15083470940589905
1760285896476066800,13.18906689453125,9.512462615966797,1.6759412288665771,-0.13168109953403473
1760285896486066700,13.199066650390625,9.40951156616211,1.6424223184585571,0.026336219161748886
