time,seconds_elapsed,z,y,x
1760285883411411500,0.124411376953125,-0.2228565216064453,0.7811509370803833,-0.2857012152671814
1760285883441411600,0.15441162109375,-0.20778942108154297,0.7854493856430054,-0.269339382648468
1760285883451411500,0.164411376953125,-0.18423080444335938,0.7781882286071777,-0.2570841610431671
1760285883461411600,0.17441162109375,-0.14385223388671875,0.7560594081878662,-0.24232320487499237
1760285883471411500,0.184411376953125,-0.08915901184082031,0.7400054931640625,-0.23499873280525208
1760285883481411600,0.19441162109375,-0.04410266876220703,0.7340257167816162,-0.23232972621917725
1760285883491411500,0.204411376953125,0.02852344512939453,0.43282604217529297,-0.13425657153129578
1760285883501411600,0.21441162109375,0.08047866821289062,0.2691943645477295,-0.07837970554828644
1760285883511411500,0.224411376953125,0.09106922149658203,0.21587014198303223,-0.060763828456401825
1760285883521411600,0.23441162109375,0.08652019500732422,0.19166696071624756,-0.0420985110104084
1760285883531411500,0.244411376953125,0.07837200164794922,0.17717671394348145,-0.031344037503004074
1760285883541411600,0.25441162109375,0.06472206115722656,0.15979444980621338,-0.02117452397942543
1760285883551411500,0.264411376953125,0.04814338684082031,0.1431671380996704,-0.02093406766653061
1760285883561411600,0.27441162109375,0.03826904296875,0.12688910961151123,-0.019912468269467354
1760285883571411500,0.284411376953125,0.025539398193359375,0.11320304870605469,-0.019076749682426453
1760285883581411600,0.29441162109375,0.014796257019042969,0.10415542125701904,-0.024598799645900726
1760285883591411500,0.304411376953125,0.0019693374633789062,0.1064598560333252,-0.019076747819781303
1760285883601411600,0.31441162109375,0.0008602142333984375,0.11256575584411621,-0.02356843464076519
1760285883611411500,0.324411376953125,-0.0002880096435546875,0.10933315753936768,-0.01311696507036686
1760285883621411600,0.33441162109375,-0.0012578964233398438,0.11470746994018555,-0.016151363030076027
1760285883631411500,0.344411376953125,0.002880096435546875,0.11592411994934082,-0.012935250997543335
1760285883641411600,0.35441162109375,0.0002956390380859375,0.11217737197875977,-0.022173399105668068
1760285883651411500,0.364411376953125,-0.004149436950683594,0.1126335859298706,-0.029268179088830948
1760285883661411600,0.37441162109375,-0.022461891174316406,0.1055217981338501,-0.029016690328717232
1760285883671411500,0.384411376953125,-0.06685829162597656,0.097015380859375,-0.028147432953119278
1760285883681411600,0.39441162109375,-0.11156272888183594,0.09265244007110596,-0.030797872692346573
1760285883691411500,0.404411376953125,-0.14248085021972656,0.08670532703399658,-0.03410699963569641
1760285883701411600,0.41441162109375,-0.15719890594482422,0.0862283706665039,-0.040556978434324265
1760285883711411500,0.424411376953125,-0.1340198516845703,0.07843470573425293,-0.04487520828843117
1760285883721411600,0.43441162109375,-0.09196281433105469,0.07458019256591797,-0.0508778840303421
1760285883731411500,0.444411376953125,-0.05449962615966797,0.0744633674621582,-0.056921105831861496
1760285883741411600,0.45441162109375,-0.0310211181640625,0.07225680351257324,-0.05453413724899292
1760285883751411500,0.464411376953125,-0.02630615234375,0.07507550716400146,-0.048911914229393005
1760285883761411600,0.47441162109375,-0.02853870391845703,0.07899200916290283,-0.049844883382320404
1760285883771411500,0.484411376953125,-0.025931358337402344,0.08261334896087646,-0.048197191208601
1760285883781411600,0.49441162109375,-0.028133392333984375,0.07918024063110352,-0.051432736217975616
1760285883791411500,0.504411376953125,-0.03998851776123047,0.08334171772003174,-0.04505925998091698
1760285883801411600,0.51441162109375,-0.054345130920410156,0.09048914909362793,-0.038617610931396484
1760285883811411500,0.524411376953125,-0.06644248962402344,0.09598255157470703,-0.0341682992875576
1760285883821411600,0.53441162109375,-0.07141971588134766,0.09463214874267578,-0.03694668039679527
1760285883831411500,0.544411376953125,-0.06438064575195312,0.09302639961242676,-0.04182005673646927
1760285883841411600,0.55441162109375,-0.06206798553466797,0.0910646915435791,-0.05513393133878708
1760285883851411500,0.564411376953125,-0.059729576110839844,0.09134697914123535,-0.05848272889852524
1760285883861411600,0.57441162109375,-0.059884071350097656,0.08261942863464355,-0.058299846947193146
1760285883871411500,0.584411376953125,-0.0626220703125,0.07496798038482666,-0.05282295122742653
1760285883881411600,0.59441162109375,-0.06302356719970703,0.06523048877716064,-0.0468488484621048
1760285883891411500,0.604411376953125,-0.051525115966796875,0.05827498435974121,-0.042609527707099915
1760285883901411600,0.61441162109375,-0.032912254333496094,0.06365633010864258,-0.042477644979953766
1760285883911411500,0.624411376953125,-0.01905345916748047,0.06647181510925293,-0.04257123917341232
1760285883921411600,0.63441162109375,-0.03130054473876953,0.06800329685211182,-0.04494717717170715
1760285883931411500,0.644411376953125,-0.06474494934082031,0.07236671447753906,-0.04895889759063721
1760285883941411600,0.65441162109375,-0.09311580657958984,0.06315410137176514,-0.04703669622540474
1760285883951411500,0.664411376953125,-0.11188316345214844,0.0490107536315918,-0.042465005069971085
1760285883961411600,0.67441162109375,-0.1140289306640625,0.04040539264678955,-0.029907209798693657
1760285883971411500,0.684411376953125,-0.10911083221435547,0.039649248123168945,-0.02647080458700657
1760285883981411600,0.69441162109375,-0.10421562194824219,0.043816208839416504,-0.03552621603012085
1760285883991411500,0.704411376953125,-0.10403823852539062,0.047603607177734375,-0.04497523233294487
1760285884001411600,0.71441162109375,-0.1158895492553711,0.04931509494781494,-0.04942118003964424
1760285884011411500,0.724411376953125,-0.12072944641113281,0.04480874538421631,-0.04324278607964516
1760285884021411600,0.73441162109375,-0.11136531829833984,0.05076313018798828,-0.037283219397068024
1760285884031411500,0.744411376953125,-0.10693359375,0.05751204490661621,-0.03180040419101715
1760285884041411600,0.75441162109375,-0.10743522644042969,0.0674675703048706,-0.0009727175347507
1760285884051411500,0.764411376953125,-0.09375762939453125,0.0760800838470459,0.012041516602039337
1760285884061411600,0.77441162109375,-0.0850057601928711,0.08549678325653076,0.012294176034629345
1760285884071411500,0.784411376953125,-0.07854747772216797,0.09200644493103027,0.02001527138054371
1760285884081411600,0.79441162109375,-0.07640552520751953,0.10067415237426758,0.02567863091826439
1760285884091411500,0.804411376953125,-0.05457305908203125,0.11112344264984131,0.018204789608716965
1760285884101411600,0.81441162109375,-0.022687911987304688,0.10457146167755127,0.025005919858813286
1760285884111411500,0.824411376953125,-0.6678972244262695,-0.031420230865478516,-0.08713459968566895
1760285884121411600,0.83441162109375,-0.7743024826049805,0.014103293418884277,-0.08231990039348602
1760285884131411500,0.844411376953125,-0.5494775772094727,0.1263124942779541,-0.010917626321315765
1760285884141411600,0.85441162109375,-0.2455587387084961,0.17777061462402344,0.026667721569538116
1760285884151411500,0.864411376953125,-0.0846261978149414,0.19477474689483643,-0.06283610314130783
1760285884161411600,0.87441162109375,-0.010578155517578125,0.20037639141082764,-0.10907003283500671
1760285884171411500,0.884411376953125,0.0026865005493164062,0.16245532035827637,-0.1308809518814087
1760285884181411600,0.89441162109375,-0.03332805633544922,0.10699403285980225,-0.13694502413272858
1760285884191411500,0.904411376953125,-0.11680221557617188,0.06137740612030029,-0.10747639834880829
1760285884201411600,0.91441162109375,-0.25074291229248047,0.03905665874481201,-0.15066584944725037
1760285884211411500,0.924411376953125,-0.42386436462402344,0.06338822841644287,-0.15162673592567444
1760285884221411600,0.93441162109375,-0.5803661346435547,0.09949648380279541,-0.11456418037414551
1760285884231411500,0.944411376953125,-0.573216438293457,0.15579020977020264,-0.1030363142490387
1760285884241411600,0.95441162109375,-0.4402322769165039,0.23206639289855957,-0.13039514422416687
1760285884251411500,0.964411376953125,-0.2714071273803711,0.27693605422973633,-0.1878334879875183
1760285884261411600,0.97441162109375,-0.07770633697509766,0.2974361181259155,-0.26367253065109253
1760285884271411500,0.984411376953125,-0.08159542083740234,0.32881760597229004,-0.2444017231464386
1760285884281411600,0.99441162109375,0.20801067352294922,0.23991906642913818,-0.2824785113334656
1760285884291411500,1.004411376953125,0.20499706268310547,0.10655069351196289,-0.11246174573898315
1760285884301411600,1.01441162109375,0.16204833984375,-0.04962325096130371,0.004613339900970459
1760285884311411500,1.024411376953125,0.14232730865478516,-0.168115496635437,0.11605006456375122
1760285884321411600,1.03441162109375,0.14860153198242188,-0.24487578868865967,0.21637371182441711
1760285884331411500,1.044411376953125,0.15953540802001953,-0.28872573375701904,0.27382755279541016
1760285884341411600,1.05441162109375,0.167938232421875,-0.31564581394195557,0.2950707674026489
1760285884351411500,1.064411376953125,0.17431068420410156,-0.3256789445877075,0.3099842071533203
1760285884361411600,1.07441162109375,0.1643381118774414,-0.31175827980041504,0.295432448387146
1760285884371411500,1.084411376953125,0.13078022003173828,-0.28106963634490967,0.240614652633667
1760285884381411600,1.09441162109375,0.07598114013671875,-0.23325204849243164,0.17664220929145813
1760285884391411500,1.104411376953125,0.0141448974609375,-0.17435002326965332,0.1250712275505066
1760285884401411600,1.11441162109375,-0.04539966583251953,-0.1242074966430664,0.08802935481071472
1760285884411411200,1.1244111328125,-0.0908060073852539,-0.08926880359649658,0.08178693056106567
1760285884421411000,1.1344111328125,-0.1151723861694336,-0.07732689380645752,0.09139156341552734
1760285884431411200,1.1444111328125,-0.11346817016601562,-0.06582450866699219,0.11057046055793762
1760285884441411000,1.1544111328125,-0.08553409576416016,-0.055310964584350586,0.12651342153549194
1760285884451411200,1.1644111328125,-0.04806041717529297,-0.04423868656158447,0.12624359130859375
1760285884461411000,1.1744111328125,0.05171012878417969,-0.030936121940612793,0.10704436898231506
1760285884471411200,1.1844111328125,0.2210245132446289,-0.011178374290466309,0.05195930600166321
1760285884481411000,1.1944111328125,0.30673694610595703,0.0338292121887207,-0.02038055658340454
1760285884491411200,1.2044111328125,0.3215904235839844,0.07404708862304688,-0.09875845909118652
1760285884501411000,1.2144111328125,0.2772502899169922,0.10547351837158203,-0.15099507570266724
1760285884511411200,1.2244111328125,0.1925058364868164,0.12284719944000244,-0.1744670867919922
1760285884521411000,1.2344111328125,0.10056209564208984,0.12401223182678223,-0.17315775156021118
1760285884531411200,1.2444111328125,0.02517223358154297,0.1228647232055664,-0.17897075414657593
1760285884541411000,1.2544111328125,-0.021953582763671875,0.1253734827041626,-0.1912633776664734
1760285884551411200,1.2644111328125,-0.03617668151855469,0.12692046165466309,-0.19319939613342285
1760285884561411000,1.2744111328125,-0.04176616668701172,0.12898647785186768,-0.1918589472770691
1760285884571411200,1.2844111328125,-0.033402442932128906,0.10616433620452881,-0.16003113985061646
1760285884581411000,1.2944111328125,-0.0034532546997070312,0.0713040828704834,-0.11606568098068237
1760285884591411200,1.3044111328125,0.03823661804199219,0.053966522216796875,-0.08179956674575806
1760285884601411000,1.3144111328125,0.07503414154052734,0.03635108470916748,-0.0694117546081543
1760285884611411200,1.3244111328125,0.08315467834472656,0.02956855297088623,-0.059014201164245605
1760285884621411000,1.3344111328125,0.05075550079345703,0.021247029304504395,-0.046928346157073975
1760285884631411200,1.3444111328125,-0.005309104919433594,0.01873636245727539,-0.04314357042312622
1760285884641411000,1.3544111328125,-0.06394004821777344,0.017661333084106445,-0.04133409261703491
1760285884651411200,1.3644111328125,-0.10852718353271484,0.018808722496032715,-0.03732943534851074
1760285884661411000,1.3744111328125,-0.13436317443847656,0.012910842895507812,-0.024473488330841064
1760285884671411200,1.3844111328125,-0.13213729858398438,0.008500337600708008,-0.02550286054611206
1760285884681411000,1.3944111328125,-0.09200286865234375,0.001700282096862793,-0.025062739849090576
1760285884691411200,1.4044111328125,-0.04494190216064453,-0.01614558696746826,0.004398941993713379
1760285884701411000,1.4144111328125,-0.021642684936523438,-0.03454029560089111,0.027530312538146973
1760285884711411500,1.424411376953125,-0.021788597106933594,-0.04890549182891846,0.034698545932769775
1760285884721411600,1.43441162109375,-0.038260459899902344,-0.05367004871368408,0.024311423301696777
1760285884731411500,1.444411376953125,-0.059241294860839844,-0.05480504035949707,0.018219470977783203
1760285884741412000,1.454412109375,-0.08014202117919922,-0.053623318672180176,0.015618503093719482
1760285884751412000,1.464411865234375,-0.10116004943847656,-0.05648910999298096,0.010415375232696533
1760285884761412000,1.474412109375,-0.10085582733154297,-0.058255791664123535,0.011259615421295166
1760285884771412000,1.484411865234375,-0.14658164978027344,-0.06972074508666992,0.01576024293899536
1760285884781412000,1.494412109375,-0.17108154296875,-0.08450198173522949,0.032772839069366455
1760285884791412000,1.504411865234375,-0.17177581787109375,-0.09583914279937744,0.04996168613433838
1760285884801412000,1.514412109375,-0.15331363677978516,-0.10636520385742188,0.07149749994277954
1760285884811412000,1.524411865234375,-0.1251983642578125,-0.11887633800506592,0.09762763977050781
1760285884821412000,1.534412109375,-0.12588119506835938,-0.11441183090209961,0.09676206111907959
1760285884831412000,1.544411865234375,-0.0740203857421875,-0.15064823627471924,0.15355950593948364
1760285884841412000,1.554412109375,-0.0747842788696289,-0.15188419818878174,0.1634451448917389
1760285884851412000,1.564411865234375,-0.09693431854248047,-0.14471089839935303,0.16127058863639832
1760285884861412000,1.574412109375,-0.12120723724365234,-0.1365361213684082,0.1460016369819641
1760285884871412000,1.584411865234375,-0.13562583923339844,-0.11484134197235107,0.11193248629570007
1760285884881412000,1.594412109375,-0.1403827667236328,-0.0877910852432251,0.08306539058685303
1760285884891412000,1.604411865234375,-0.13814163208007812,-0.059301137924194336,0.059257328510284424
1760285884901412000,1.614412109375,-0.13385963439941406,-0.0363849401473999,0.04041522741317749
1760285884911412000,1.624411865234375,-0.13010215759277344,-0.01839303970336914,0.02271789312362671
1760285884921412000,1.634412109375,-0.1216897964477539,-0.0068482160568237305,0.009183228015899658
1760285884931412000,1.644411865234375,-0.10129642486572266,0.007433176040649414,0.013288378715515137
1760285884941412000,1.654412109375,-0.06889820098876953,0.017028331756591797,0.010916352272033691
1760285884951412000,1.664411865234375,-0.02921772003173828,0.02387702465057373,0.014142751693725586
1760285884966067200,1.679067138671875,0.0010576248168945312,0.02980649471282959,0.003749370574951172
1760285884976067300,1.6890673828125,0.019652366638183594,0.029085636138916016,-0.0059931278228759766
1760285884986067200,1.699067138671875,0.03865623474121094,0.02352726459503174,-0.007180571556091309
1760285884996067300,1.7090673828125,0.053032875061035156,0.019392013549804688,-0.015019237995147705
1760285885006067200,1.719067138671875,0.060214996337890625,0.010458111763000488,-0.04464191198348999
1760285885016067300,1.7290673828125,0.06964492797851562,0.01643824577331543,-0.07793515920639038
1760285885026067200,1.739067138671875,0.07886028289794922,0.02349376678466797,-0.10048389434814453
1760285885036067300,1.7490673828125,0.07832050323486328,0.02894771099090576,-0.11713302135467529
1760285885046066700,1.759066650390625,0.06827926635742188,0.031085491180419922,-0.1250811219215393
1760285885056066800,1.76906689453125,0.04882621765136719,0.032101988792419434,-0.12317025661468506
1760285885066066400,1.77906640625,0.031920433044433594,0.02509915828704834,-0.11096638441085815
1760285885076066300,1.78906640625,0.015133857727050781,0.012668371200561523,-0.0958135724067688
1760285885086066400,1.79906640625,0.0007781982421875,0.0025246143341064453,-0.0802198052406311
1760285885096066300,1.80906640625,-0.018245697021484375,-0.0034154653549194336,-0.06150084733963013
1760285885106066400,1.81906640625,-0.03956031799316406,-0.005403995513916016,-0.033341050148010254
1760285885116066300,1.82906640625,-0.0655374526977539,-0.013101458549499512,-0.0027813315391540527
1760285885126066400,1.83906640625,-0.09147167205810547,-0.023398876190185547,0.01609015464782715
1760285885136066600,1.849066650390625,-0.1078348159790039,-0.03346550464630127,0.028193235397338867
1760285885146066400,1.85906640625,-0.12912559509277344,-0.03302812576293945,0.030486762523651123
1760285885156066600,1.869066650390625,-0.14336013793945312,-0.03426671028137207,0.0226442813873291
1760285885166066400,1.87906640625,-0.14566707611083984,-0.03264749050140381,0.01992940902709961
1760285885176066300,1.88906640625,-0.12888145446777344,-0.03499746322631836,0.027690768241882324
1760285885186066400,1.89906640625,-0.10748958587646484,-0.04596686363220215,0.04408144950866699
1760285885196066300,1.90906640625,-0.08869647979736328,-0.053690433502197266,0.06602510809898376
1760285885206066400,1.91906640625,-0.08917903900146484,-0.06834781169891357,0.07917913794517517
1760285885216066300,1.92906640625,-0.09926414489746094,-0.07589590549468994,0.08446177840232849
1760285885226066400,1.93906640625,-0.11653900146484375,-0.0785074234008789,0.08754920959472656
1760285885236066300,1.94906640625,-0.12189483642578125,-0.08297419548034668,0.09815448522567749
1760285885246066400,1.95906640625,-0.108123779296875,-0.09147477149963379,0.1172616183757782
1760285885256066300,1.96906640625,-0.08483123779296875,-0.10368859767913818,0.14277833700180054
1760285885266066400,1.97906640625,-0.059058189392089844,-0.12115120887756348,0.16871443390846252
1760285885276066300,1.98906640625,-0.04278373718261719,-0.12736272811889648,0.18236085772514343
1760285885286066400,1.99906640625,-0.0360260009765625,-0.11735689640045166,0.17419812083244324
1760285885296066300,2.00906640625,-0.034049034118652344,-0.10269427299499512,0.15386837720870972
1760285885306066400,2.01906640625,-0.029700279235839844,-0.09035837650299072,0.13325458765029907
1760285885316066300,2.02906640625,-0.018075942993164062,-0.07584750652313232,0.1186319887638092
1760285885326066400,2.03906640625,-0.0015916824340820312,-0.06387948989868164,0.10739526152610779
1760285885336066300,2.04906640625,0.014871597290039062,-0.051882028579711914,0.0814390778541565
1760285885346066400,2.05906640625,0.03136920928955078,-0.030529022216796875,0.03403365612030029
1760285885356066300,2.06906640625,0.050368309020996094,-0.00023102760314941406,-0.022486984729766846
1760285885366066700,2.079066650390625,0.0646820068359375,0.036562323570251465,-0.07636487483978271
1760285885376066800,2.08906689453125,0.06951236724853516,0.06522071361541748,-0.11166691780090332
1760285885386067000,2.09906689453125,0.06726646423339844,0.07134604454040527,-0.1258503794670105
1760285885396066800,2.10906689453125,0.04835796356201172,0.07182478904724121,-0.1259339451789856
1760285885406067000,2.11906689453125,0.02469921112060547,0.06488919258117676,-0.12827414274215698
1760285885416066800,2.12906689453125,0.010578155517578125,0.058257222175598145,-0.11623674631118774
1760285885426066700,2.139066650390625,0.01071929931640625,0.05242812633514404,-0.10657763481140137
1760285885436066800,2.14906689453125,0.015620231628417969,0.04694652557373047,-0.10137027502059937
1760285885456066800,2.16906689453125,0.004042625427246094,0.024656057357788086,-0.08974182605743408
1760285885466066700,2.179066650390625,-0.03151130676269531,0.006839394569396973,-0.08194869756698608
1760285885476066800,2.18906689453125,-0.062262535095214844,-0.008588671684265137,-0.06914889812469482
1760285885486066700,2.199066650390625,-0.08822345733642578,-0.028315424919128418,-0.052708983421325684
1760285885496066800,2.20906689453125,-0.10216903686523438,-0.04532766342163086,-0.03465068340301514
1760285885506066700,2.219066650390625,-0.11606311798095703,-0.05992138385772705,-0.027552783489227295
1760285885516066800,2.22906689453125,-0.1395425796508789,-0.06483638286590576,-0.020402491092681885
1760285885526066700,2.239066650390625,-0.16784286499023438,-0.06962704658508301,-0.011153578758239746
1760285885536066800,2.24906689453125,-0.18915081024169922,-0.07314789295196533,-0.0023050308227539062
1760285885546066700,2.259066650390625,-0.1890249252319336,-0.0754309892654419,0.005096912384033203
1760285885556066800,2.26906689453125,-0.16983318328857422,-0.07179009914398193,0.011225283145904541
1760285885566066700,2.279066650390625,-0.13628196716308594,-0.06535542011260986,0.015817880630493164
1760285885586066700,2.299066650390625,-0.052254676818847656,-0.058147549629211426,0.011374175548553467
1760285885596066800,2.30906689453125,-0.03290271759033203,-0.04837465286254883,-0.0038043856620788574
1760285885606066700,2.319066650390625,-0.03502845764160156,-0.035196781158447266,-0.03536880016326904
1760285885616066800,2.32906689453125,-0.04913043975830078,-0.02508234977722168,-0.059019625186920166
1760285885626067000,2.33906689453125,-0.0512237548828125,-0.017597079277038574,-0.05625653266906738
1760285885636066800,2.34906689453125,-0.05097007751464844,-0.021402955055236816,-0.04314315319061279
1760285885646067000,2.35906689453125,-0.045996665954589844,-0.034247517585754395,-0.02759164571762085
1760285885656066800,2.36906689453125,-0.03867816925048828,-0.04194080829620361,-0.01682126522064209
1760285885666067000,2.37906689453125,-0.028992652893066406,-0.039771199226379395,-0.01065361499786377
1760285885676066800,2.38906689453125,-0.026427268981933594,-0.030852556228637695,-0.01879805326461792
1760285885686066700,2.399066650390625,-0.030976295471191406,-0.015321969985961914,-0.036656320095062256
1760285885696066800,2.40906689453125,-0.03302192687988281,0.004427909851074219,-0.05153387784957886
1760285885706066700,2.419066650390625,-0.022974014282226562,0.018987655639648438,-0.06287622451782227
1760285885716066800,2.42906689453125,0.008722305297851562,0.03339576721191406,-0.06330263614654541
1760285885726066700,2.439066650390625,0.045256614685058594,0.04287242889404297,-0.06324440240859985
1760285885736066800,2.44906689453125,0.07941532135009766,0.046692728996276855,-0.06491035223007202
1760285885746066700,2.459066650390625,0.0921010971069336,0.05176436901092529,-0.07036018371582031
1760285885756066800,2.46906689453125,0.08333396911621094,0.05819082260131836,-0.07423573732376099
1760285885766066700,2.479066650390625,0.06261157989501953,0.06666100025177002,-0.08347862958908081
1760285885776066800,2.48906689453125,0.03706645965576172,0.0776529312133789,-0.10265982151031494
1760285885786066700,2.499066650390625,0.01620006561279297,0.09181845188140869,-0.12190812826156616
1760285885796066800,2.50906689453125,0.016737937927246094,0.10473060607910156,-0.1313859224319458
1760285885806066700,2.519066650390625,-0.39712047576904297,0.154510498046875,-0.180325448513031
1760285885816066800,2.52906689453125,-0.33980560302734375,0.13610005378723145,-0.12211865186691284
1760285885826066700,2.539066650390625,-0.35796451568603516,0.09925103187561035,-0.07358181476593018
1760285885836066800,2.54906689453125,-0.3117971420288086,0.05096304416656494,-0.0036337971687316895
1760285885846066700,2.559066650390625,-0.2654399871826172,0.01555180549621582,0.05177426338195801
1760285885856066800,2.56906689453125,-0.19718456268310547,-0.014629602432250977,0.07463818788528442
1760285885866066700,2.579066650390625,-0.12383174896240234,-0.03527390956878662,0.06824749708175659
1760285885876066800,2.58906689453125,-0.06142616271972656,-0.054813265800476074,0.0531347393989563
1760285885886067000,2.59906689453125,-0.0175933837890625,-0.07579994201660156,0.027008891105651855
1760285885896066800,2.60906689453125,-0.0046482086181640625,-0.08752584457397461,0.0037107467651367188
1760285885906067000,2.61906689453125,-0.010957717895507812,-0.09528493881225586,-0.01795750856399536
1760285885916066800,2.62906689453125,-0.02950286865234375,-0.10016441345214844,-0.021058857440948486
1760285885926066700,2.639066650390625,-0.05793476104736328,-0.10606980323791504,-0.006907939910888672
1760285885936066800,2.64906689453125,-0.09381961822509766,-0.10787796974182129,0.008944034576416016
1760285885946066700,2.659066650390625,-0.10866355895996094,-0.10106027126312256,0.008024334907531738
1760285885956066800,2.66906689453125,-0.09987163543701172,-0.0874333381652832,-0.003127455711364746
1760285885966066700,2.679066650390625,-0.09360408782958984,-0.06809484958648682,-0.01926112174987793
1760285885976066800,2.68906689453125,-0.0872964859008789,-0.039318084716796875,-0.03278380632400513
1760285885986066700,2.699066650390625,-0.0880889892578125,-0.032549381256103516,-0.03168576955795288
1760285885996066800,2.70906689453125,-0.0720682144165039,0.007200002670288086,-0.06914681196212769
1760285886006066700,2.719066650390625,-0.07271194458007812,0.012671232223510742,-0.06840068101882935
1760285886016066800,2.72906689453125,-0.05401611328125,0.03729450702667236,-0.07653653621673584
1760285886026066700,2.739066650390625,-0.049546241760253906,0.04149603843688965,-0.07063901424407959
1760285886036066800,2.74906689453125,-0.04018211364746094,0.04041481018066406,-0.06652742624282837
1760285886046066700,2.759066650390625,-0.03558158874511719,0.04430508613586426,-0.06651586294174194
1760285886056066800,2.76906689453125,-0.028591156005859375,0.04850494861602783,-0.05403512716293335
1760285886066066700,2.779066650390625,-0.009714126586914062,0.05569279193878174,-0.044092535972595215
1760285886076066800,2.78906689453125,0.0018291473388671875,0.05897879600524902,-0.041918933391571045
1760285886086066700,2.799066650390625,0.013169288635253906,0.06489455699920654,-0.04223841428756714
1760285886096066800,2.80906689453125,0.012477874755859375,0.06856644153594971,-0.0455746054649353
1760285886116066800,2.82906689453125,0.07358360290527344,0.08440518379211426,-0.055636465549468994
1760285886126067000,2.83906689453125,0.0709238052368164,0.08820176124572754,-0.049785494804382324
1760285886146067000,2.85906689453125,0.030119895935058594,0.03811037540435791,-0.022212743759155273
1760285886156066800,2.86906689453125,0.02481555938720703,0.01677072048187256,-0.0034964680671691895
1760285886166067000,2.87906689453125,0.033321380615234375,0.01036214828491211,0.0052078962326049805
1760285886176066800,2.88906689453125,0.04143810272216797,0.01051342487335205,0.00646054744720459
1760285886186067000,2.89906689453125,0.030290603637695312,0.008562803268432617,0.008772671222686768
1760285886196066800,2.90906689453125,-0.00463104248046875,0.0031360387802124023,0.018595099449157715
1760285886206067000,2.91906689453125,-0.04651355743408203,-0.008379817008972168,0.026841819286346436
1760285886216066800,2.92906689453125,-0.06907272338867188,-0.018180012702941895,0.012373745441436768
1760285886226067000,2.93906689453125,-0.0867462158203125,-0.021148085594177246,-0.010890960693359375
1760285886236066800,2.94906689453125,-0.1043710708618164,-0.03148841857910156,-0.019495666027069092
1760285886246067000,2.95906689453125,-0.13881969451904297,-0.0557558536529541,-0.011636018753051758
1760285886256066800,2.96906689453125,-0.1807088851928711,-0.059166550636291504,0.004767715930938721
1760285886266067000,2.97906689453125,-0.21101665496826172,-0.04988420009613037,0.010993361473083496
1760285886276066800,2.98906689453125,-0.19547176361083984,-0.054112911224365234,0.022331833839416504
1760285886286067000,2.99906689453125,-0.11471176147460938,-0.06175422668457031,0.041079580783843994
1760285886296066800,3.00906689453125,0.0025014877319335938,-0.09810125827789307,0.05959218740463257
1760285886306067000,3.01906689453125,0.07655143737792969,-0.11810016632080078,0.07644134759902954
1760285886316066800,3.02906689453125,0.044891357421875,-0.13025426864624023,0.0744437575340271
1760285886326067000,3.03906689453125,-0.04924201965332031,-0.12851405143737793,0.08193814754486084
1760285886336066800,3.04906689453125,-0.18202495574951172,-0.08850216865539551,0.06862902641296387
1760285886346067000,3.05906689453125,-0.2358865737915039,0.17255377769470215,-0.14609766006469727
1760285886356066800,3.06906689453125,-0.19385242462158203,0.27949023246765137,-0.3471294641494751
1760285886366067000,3.07906689453125,-0.11043167114257812,0.27478253841400146,-0.38494211435317993
1760285886376066800,3.08906689453125,-0.055863380432128906,0.26907408237457275,-0.37461966276168823
1760285886386067000,3.09906689453125,-0.08541393280029297,0.25447022914886475,-0.3394017815589905
1760285886396066800,3.10906689453125,-0.1705484390258789,0.2143251895904541,-0.2870115041732788
1760285886406067000,3.11906689453125,-0.22535991668701172,0.17302751541137695,-0.2405264973640442
1760285886416066800,3.12906689453125,-0.2043771743774414,0.14039242267608643,-0.1955128312110901
1760285886426066700,3.139066650390625,-0.11470794677734375,0.11351311206817627,-0.1715071201324463
1760285886436066800,3.14906689453125,0.0012350082397460938,0.08561909198760986,-0.16064369678497314
1760285886446066700,3.159066650390625,0.09828567504882812,0.06264877319335938,-0.1451178789138794
1760285886466066700,3.179066650390625,0.17891407012939453,0.03161180019378662,-0.12059414386749268
1760285886486066700,3.199066650390625,0.1488056182861328,-0.005689382553100586,-0.04547321796417236
1760285886496066800,3.20906689453125,0.09942245483398438,0.0013140439987182617,-0.030079662799835205
1760285886506066700,3.219066650390625,0.037995338439941406,0.02117633819580078,-0.043081462383270264
1760285886516066800,3.22906689453125,-0.018892288208007812,0.010190606117248535,-0.038544535636901855
1760285886526066700,3.239066650390625,-0.025758743286132812,0.01624584197998047,-0.0021886229515075684
1760285886536066800,3.24906689453125,-0.0017118453979492188,0.021708130836486816,0.019712746143341064
1760285886546066700,3.259066650390625,0.04351997375488281,0.0071871280670166016,0.017279088497161865
1760285886556066800,3.26906689453125,0.11488533020019531,-0.028231024742126465,0.044008076190948486
1760285886566066700,3.279066650390625,0.1909046173095703,-0.04791700839996338,0.06929844617843628
1760285886576066800,3.28906689453125,0.19002342224121094,-0.046238064765930176,0.05864065885543823
1760285886586066700,3.299066650390625,0.2842550277709961,-0.0978395938873291,0.05972820520401001
1760285886596066800,3.30906689453125,0.28258800506591797,-0.09426558017730713,0.03916299343109131
1760285886606066700,3.319066650390625,0.26226234436035156,-0.09552466869354248,0.05751466751098633
1760285886616066800,3.32906689453125,0.2617216110229492,-0.09756958484649658,0.04420417547225952
1760285886626067000,3.33906689453125,0.17798805236816406,-0.08326315879821777,0.021333694458007812
1760285886636066800,3.34906689453125,0.1211843490600586,-0.0739830732345581,0.001188039779663086
1760285886646067000,3.35906689453125,0.04540443420410156,-0.06117236614227295,-0.013691842555999756
1760285886656066800,3.36906689453125,-0.03757762908935547,-0.060349106788635254,-0.014743387699127197
1760285886666067000,3.37906689453125,-0.03815746307373047,-0.05614638328552246,-0.01647871732711792
1760285886676066800,3.38906689453125,-0.19196510314941406,-0.05234396457672119,0.004888176918029785
1760285886686066700,3.399066650390625,-0.23325538635253906,-0.06036233901977539,0.023945629596710205
1760285886696066800,3.40906689453125,-0.2458047866821289,-0.06572890281677246,0.03649228811264038
1760285886706066700,3.419066650390625,-0.24156570434570312,-0.07079076766967773,0.04062408208847046
1760285886716066800,3.42906689453125,-0.2420501708984375,-0.06665539741516113,0.04031217098236084
1760285886726066700,3.439066650390625,-0.22330760955810547,-0.06310832500457764,0.02813500165939331
1760285886736066800,3.44906689453125,-0.19487762451171875,-0.03915607929229736,-0.027476131916046143
1760285886746066700,3.459066650390625,-0.19264602661132812,-0.01876699924468994,-0.047087788581848145
1760285886756066800,3.46906689453125,-0.19266891479492188,-0.01843881607055664,-0.04684042930603027
1760285886766066700,3.479066650390625,-0.20694351196289062,-0.014446616172790527,-0.054003357887268066
1760285886776066800,3.48906689453125,-0.24287033081054688,-0.016648173332214355,-0.022726893424987793
1760285886786066700,3.499066650390625,-0.24782752990722656,-0.0268399715423584,-0.005398213863372803
1760285886796066800,3.50906689453125,-0.23861312866210938,-0.030270695686340332,0.0028429627418518066
1760285886806066700,3.519066650390625,-0.2080392837524414,-0.01994788646697998,0.006412088871002197
1760285886816066800,3.52906689453125,-0.1608409881591797,-0.003728151321411133,0.004929304122924805
1760285886826066700,3.539066650390625,-0.11364936828613281,0.005410671234130859,0.0010450482368469238
1760285886836066800,3.54906689453125,-0.07353973388671875,0.01127016544342041,-0.014807403087615967
1760285886846066700,3.559066650390625,-0.07381153106689453,0.014540433883666992,-0.013287544250488281
1760285886856066800,3.56906689453125,-0.025997161865234375,0.04025387763977051,-0.04217839241027832
1760285886866066700,3.579066650390625,-0.011626243591308594,0.04861617088317871,-0.03256940841674805
1760285886876066800,3.58906689453125,-0.004479408264160156,0.05468630790710449,-0.02591758966445923
1760285886886067000,3.59906689453125,-0.0023069381713867188,0.0570216178894043,-0.010998845100402832
1760285886896066800,3.60906689453125,-0.0027217864990234375,0.06045341491699219,-0.011807501316070557
1760285886906067000,3.61906689453125,0.01587200164794922,0.06967425346374512,0.008242309093475342
1760285886916066800,3.62906689453125,0.046413421630859375,0.07464838027954102,0.007295787334442139
1760285886926066700,3.639066650390625,0.08184242248535156,0.07904243469238281,-0.007346689701080322
1760285886936066800,3.64906689453125,0.11742782592773438,0.0870431661605835,-0.01910489797592163
1760285886946066700,3.659066650390625,0.11724281311035156,0.08888256549835205,-0.018938183784484863
1760285886956066800,3.66906689453125,0.13867664337158203,0.08932745456695557,-0.04408276081085205
1760285886966066700,3.679066650390625,0.13383865356445312,0.08376049995422363,-0.04647362232208252
1760285886976066800,3.68906689453125,0.12434577941894531,0.07955658435821533,-0.04842299222946167
1760285886986066700,3.699066650390625,0.10312271118164062,0.07165563106536865,-0.05332016944885254
1760285886996066800,3.70906689453125,0.07718658447265625,0.06310820579528809,-0.06766504049301147
1760285887006066700,3.719066650390625,0.046439170837402344,0.06170022487640381,-0.0801767110824585
1760285887016066800,3.72906689453125,0.010822296142578125,0.05827140808105469,-0.08866840600967407
1760285887026066700,3.739066650390625,-0.022449493408203125,0.06260454654693604,-0.1041228175163269
1760285887036066800,3.74906689453125,-0.04616546630859375,0.05804634094238281,-0.10905158519744873
1760285887046066700,3.759066650390625,-0.048453330993652344,0.050224900245666504,-0.10118448734283447
1760285887056066800,3.76906689453125,-0.03644371032714844,0.0407329797744751,-0.09551459550857544
1760285887066066700,3.779066650390625,-0.036431312561035156,0.040700554847717285,-0.09535062313079834
1760285887076066800,3.78906689453125,-0.02444934844970703,0.01849186420440674,-0.09168368577957153
1760285887086066700,3.799066650390625,-0.02678966522216797,0.019649624824523926,-0.10031163692474365
1760285887096066800,3.80906689453125,-0.04105186462402344,0.020416617393493652,-0.1064537763595581
1760285887106066700,3.819066650390625,-0.06004905700683594,0.023162245750427246,-0.1052587628364563
1760285887116066800,3.82906689453125,-0.0838174819946289,0.02366936206817627,-0.09385490417480469
1760285887126067000,3.83906689453125,-0.10759925842285156,0.015036702156066895,-0.07227295637130737
1760285887136066800,3.84906689453125,-0.12183189392089844,0.009399056434631348,-0.05477553606033325
1760285887146067000,3.85906689453125,-0.12652206420898438,0.0020221471786499023,-0.050958096981048584
1760285887156066800,3.86906689453125,-0.10970592498779297,-0.002355217933654785,-0.04431051015853882
1760285887166067000,3.87906689453125,-0.08580493927001953,-0.006134510040283203,-0.031074583530426025
1760285887176066800,3.88906689453125,-0.0859975814819336,-0.0046117305755615234,-0.03156810998916626
1760285887186066700,3.899066650390625,-0.0792551040649414,-0.019475698471069336,-0.028681814670562744
1760285887196066800,3.90906689453125,-0.0701761245727539,-0.019603610038757324,-0.02858555316925049
1760285887206066700,3.919066650390625,-0.044302940368652344,-0.016797423362731934,-0.026788175106048584
1760285887216066800,3.92906689453125,-0.015974998474121094,-0.013971328735351562,-0.03103536367416382
1760285887226066700,3.939066650390625,0.0005350112915039062,-0.012203097343444824,-0.03214550018310547
1760285887236066800,3.94906689453125,-0.004302024841308594,-0.005028128623962402,-0.023496150970458984
1760285887246067000,3.95906689453125,-0.03539848327636719,0.0056040287017822266,-0.016113877296447754
1760285887256066800,3.96906689453125,-0.0736837387084961,0.013534784317016602,-0.007093846797943115
1760285887266067000,3.97906689453125,-0.10242748260498047,0.02945077419281006,0.00047773122787475586
1760285887276066800,3.98906689453125,-0.13124942779541016,0.05636906623840332,-0.0048632025718688965
1760285887286067000,3.99906689453125,-0.13542842864990234,0.0738060474395752,-0.01833510398864746
1760285887296066800,4.00906689453125,-0.1436300277709961,0.08319556713104248,-0.029106199741363525
1760285887306067000,4.01906689453125,-0.14679527282714844,0.08832597732543945,-0.04676336050033569
1760285887316066800,4.02906689453125,-0.16194438934326172,0.09333765506744385,-0.07258248329162598
1760285887326067000,4.03906689453125,-0.19188690185546875,0.10999131202697754,-0.1022791862487793
1760285887336066800,4.04906689453125,-0.2246532440185547,0.12380743026733398,-0.12858861684799194
1760285887346067000,4.05906689453125,-0.24810123443603516,0.12999117374420166,-0.13654416799545288
1760285887356066800,4.06906689453125,-0.2429027557373047,0.13082528114318848,-0.13784068822860718
1760285887366067000,4.07906689453125,-0.2088479995727539,0.10859823226928711,-0.1285003423690796
1760285887376066800,4.08906689453125,-0.1529254913330078,0.09063267707824707,-0.10806465148925781
1760285887386067000,4.09906689453125,-0.08716201782226562,0.059395551681518555,-0.08140629529953003
1760285887396066800,4.10906689453125,-0.031139373779296875,0.02353990077972412,-0.05974733829498291
1760285887406067000,4.11906689453125,0.007678985595703125,-0.013797402381896973,-0.04342561960220337
1760285887416066800,4.12906689453125,0.03397655487060547,-0.04712498188018799,-0.02785390615463257
1760285887426067000,4.13906689453125,0.05504322052001953,-0.07160091400146484,-0.006495952606201172
1760285887436066800,4.14906689453125,0.08538627624511719,-0.07533466815948486,0.0057888031005859375
1760285887446067000,4.15906689453125,0.11559581756591797,-0.06844055652618408,0.005777180194854736
1760285887456066800,4.16906689453125,0.1338520050048828,-0.05879783630371094,-0.005484163761138916
1760285887466067000,4.17906689453125,0.13315868377685547,-0.052446722984313965,-0.0056542158126831055
1760285887476066800,4.18906689453125,0.12072944641113281,-0.021376967430114746,-0.03369826078414917
1760285887486067000,4.19906689453125,0.09664440155029297,-0.004528641700744629,-0.03190875053405762
1760285887496066800,4.20906689453125,0.06802558898925781,-0.0016567707061767578,-0.022345542907714844
1760285887506067000,4.21906689453125,0.04182910919189453,-0.004658818244934082,-0.01165992021560669
1760285887516066800,4.22906689453125,0.017899513244628906,-0.005074620246887207,-0.00015926361083984375
1760285887526067000,4.23906689453125,0.017722129821777344,-0.004380702972412109,-0.0016654729843139648
1760285887536066800,4.24906689453125,-0.02588367462158203,-0.013570785522460938,0.02869093418121338
1760285887546066700,4.259066650390625,-0.028881072998046875,-0.009755253791809082,0.042489469051361084
1760285887556066800,4.26906689453125,-0.01741790771484375,-0.005648970603942871,0.046175599098205566
1760285887566066700,4.279066650390625,-0.0009260177612304688,-0.00018107891082763672,0.03740912675857544
1760285887576066800,4.28906689453125,-0.0009527206420898438,0.0014077425003051758,0.039467573165893555
1760285887586066700,4.299066650390625,0.020714759826660156,0.015964269638061523,0.008012831211090088
1760285887596066800,4.30906689453125,0.023214340209960938,0.025203227996826172,-0.012503206729888916
1760285887606066700,4.319066650390625,0.02077960968017578,0.039045095443725586,-0.033053815364837646
1760285887616066800,4.32906689453125,0.006360054016113281,0.0527951717376709,-0.05875658988952637
1760285887626067000,4.33906689453125,-0.010455131530761719,0.05691099166870117,-0.0749855637550354
1760285887636066800,4.34906689453125,-0.010533332824707031,0.05650138854980469,-0.07679039239883423
1760285887646067000,4.35906689453125,-0.0249481201171875,0.07082343101501465,-0.10152864456176758
1760285887656066800,4.36906689453125,-0.013036727905273438,0.06884276866912842,-0.1209108829498291
1760285887666067000,4.37906689453125,0.04182624816894531,0.06528985500335693,-0.12442207336425781
1760285887676066800,4.38906689453125,0.12234783172607422,0.06825506687164307,-0.13537687063217163
1760285887686066700,4.399066650390625,0.20957660675048828,0.07170522212982178,-0.15777713060379028
1760285887696066800,4.40906689453125,0.24165058135986328,0.06228065490722656,-0.16191500425338745
1760285887706066700,4.419066650390625,0.24773311614990234,0.06190502643585205,-0.1444186568260193
1760285887716066800,4.42906689453125,0.22568798065185547,0.04831123352050781,-0.11415255069732666
1760285887726066700,4.439066650390625,0.20425128936767578,0.024065256118774414,-0.0777013897895813
1760285887736066800,4.44906689453125,0.1835460662841797,0.010857939720153809,-0.04455488920211792
1760285887746066700,4.459066650390625,0.10795021057128906,0.015395879745483398,-0.027993440628051758
1760285887756066800,4.46906689453125,-0.0035724639892578125,0.022103309631347656,-0.03158086538314819
1760285887766066700,4.479066650390625,-0.13200759887695312,0.027936339378356934,-0.04245257377624512
1760285887776066800,4.48906689453125,-0.2511177062988281,0.031606316566467285,-0.04809308052062988
1760285887786066700,4.499066650390625,-0.25079917907714844,0.02676570415496826,-0.052051663398742676
1760285887796066800,4.50906689453125,-0.3321952819824219,0.03782773017883301,-0.053768932819366455
1760285887806066700,4.519066650390625,-0.35892200469970703,0.03207361698150635,-0.07710474729537964
1760285887816066800,4.52906689453125,-0.3187265396118164,0.030032038688659668,-0.09031981229782104
1760285887826066700,4.539066650390625,-0.31914234161376953,0.03460562229156494,-0.08873051404953003
1760285887836066800,4.54906689453125,-0.2739381790161133,0.03075563907623291,-0.09207236766815186
1760285887846066700,4.559066650390625,-0.20703887939453125,0.008532285690307617,-0.09357762336730957
1760285887856066800,4.56906689453125,-0.19266223907470703,-0.0030852556228637695,-0.08786880970001221
1760285887866066700,4.579066650390625,-0.19253826141357422,-0.0033768415451049805,-0.08621996641159058
1760285887876066800,4.58906689453125,-0.1637725830078125,-0.0052253007888793945,-0.07972639799118042
1760285887886066700,4.599066650390625,-0.16389083862304688,-0.0036295652389526367,-0.07873654365539551
1760285887896066800,4.60906689453125,-0.11862373352050781,0.005912065505981445,-0.07811391353607178
1760285887906067000,4.61906689453125,-0.0973653793334961,0.015615582466125488,-0.07837748527526855
1760285887916066800,4.62906689453125,-0.06419658660888672,0.02334904670715332,-0.08850681781768799
1760285887926066700,4.639066650390625,-0.023881912231445312,0.03179144859313965,-0.09556162357330322
1760285887936066800,4.64906689453125,-0.024251937866210938,0.0357820987701416,-0.09448277950286865
1760285887946066700,4.659066650390625,0.04487419128417969,0.04561817646026611,-0.09484583139419556
1760285887956066800,4.66906689453125,0.05182838439941406,0.046727538108825684,-0.07767581939697266
1760285887966066700,4.679066650390625,0.042138099670410156,0.04651165008544922,-0.06814706325531006
1760285887976066800,4.68906689453125,0.022960662841796875,0.04081857204437256,-0.06315016746520996
1760285887986066700,4.699066650390625,0.008593559265136719,0.037699103355407715,-0.05023425817489624
1760285887996066800,4.70906689453125,0.0013532638549804688,0.03305065631866455,-0.03902179002761841
1760285888006066700,4.719066650390625,0.0012226104736328125,0.024297237396240234,-0.023035109043121338
1760285888016066800,4.72906689453125,0.008270263671875,0.020548343658447266,-0.006707727909088135
1760285888026066700,4.739066650390625,0.005766868591308594,0.02136075496673584,0.007246494293212891
1760285888036066800,4.74906689453125,-0.003902435302734375,0.026504158973693848,0.013435304164886475
1760285888046066700,4.759066650390625,-0.013545036315917969,0.028741955757141113,0.007149755954742432
1760285888056066800,4.76906689453125,-0.015924453735351562,0.03544032573699951,-0.0007289648056030273
1760285888066066700,4.779066650390625,-0.006275177001953125,0.04705536365509033,-0.007278561592102051
1760285888076066800,4.78906689453125,0.015350341796875,0.05430114269256592,-0.012910008430480957
1760285888086066700,4.799066650390625,0.015430450439453125,0.05400371551513672,-0.012026309967041016
1760285888096066800,4.80906689453125,0.039463043212890625,0.05790209770202637,-0.021696627140045166
1760285888106066700,4.819066650390625,0.053900718688964844,0.06151103973388672,-0.04901367425918579
1760285888116066800,4.82906689453125,0.05393218994140625,0.06025397777557373,-0.04612696170806885
1760285888126066700,4.839066650390625,0.04673194885253906,0.05176258087158203,-0.04424673318862915
1760285888136066800,4.84906689453125,0.03710365295410156,0.03838670253753662,-0.028852641582489014
1760285888146066700,4.859066650390625,0.029885292053222656,0.02253413200378418,-0.01094353199005127
1760285888156066800,4.86906689453125,-0.006085395812988281,0.016364216804504395,-0.0004916191101074219
1760285888166066700,4.879066650390625,-0.13300228118896484,0.02913343906402588,-0.016160905361175537
1760285888176066800,4.88906689453125,-0.1948843002319336,0.04647696018218994,-0.03207850456237793
1760285888186066700,4.899066650390625,-0.19447994232177734,0.04660177230834961,-0.024250388145446777
1760285888196066800,4.90906689453125,-0.18476581573486328,0.034214138984680176,-0.03452253341674805
1760285888206066700,4.919066650390625,-0.11545944213867188,-0.002974987030029297,-0.0227053165435791
1760285888216066800,4.92906689453125,-0.034465789794921875,-0.03765451908111572,-0.008673548698425293
1760285888226066700,4.939066650390625,0.015277862548828125,-0.053282856941223145,-0.0018892884254455566
1760285888236066800,4.94906689453125,0.026846885681152344,-0.06120920181274414,-0.013255774974822998
1760285888246066700,4.959066650390625,0.029082298278808594,-0.06099522113800049,-0.030263841152191162
1760285888256066800,4.96906689453125,0.02680683135986328,-0.05904841423034668,-0.024280428886413574
1760285888266066700,4.979066650390625,0.015135765075683594,-0.05499875545501709,-0.015439271926879883
1760285888276066800,4.98906689453125,0.015450477600097656,-0.057982563972473145,-0.015610039234161377
1760285888286066700,4.999066650390625,-0.0633544921875,-0.04839825630187988,0.002470672130584717
1760285888296066800,5.00906689453125,-0.12327098846435547,-0.03264188766479492,0.0039719343185424805
1760285888306066700,5.019066650390625,-0.17374134063720703,-0.013028383255004883,0.005979955196380615
1760285888316066800,5.02906689453125,-0.17399883270263672,-0.01105642318725586,0.005134165287017822
1760285888326066700,5.039066650390625,-0.200653076171875,0.03061699867248535,-0.03702172636985779
1760285888336066800,5.04906689453125,-0.20097827911376953,0.03478729724884033,-0.03458958864212036
1760285888346066700,5.059066650390625,-0.12706851959228516,0.04630756378173828,-0.04356658458709717
1760285888356066800,5.06906689453125,-0.08899593353271484,0.03478825092315674,-0.032605886459350586
1760285888366066700,5.079066650390625,-0.06760501861572266,0.022101640701293945,-0.017795264720916748
1760285888376066800,5.08906689453125,-0.06763648986816406,0.02254188060760498,-0.017497122287750244
1760285888386066700,5.099066650390625,-0.07477664947509766,0.012706518173217773,-0.0076454877853393555
1760285888396066800,5.10906689453125,-0.086669921875,0.024306774139404297,-0.02129119634628296
1760285888406066700,5.119066650390625,-0.08183860778808594,0.046422481536865234,-0.03366386890411377
1760285888416066800,5.12906689453125,-0.057936668395996094,0.057961463928222656,-0.03281313180923462
1760285888426066700,5.139066650390625,-0.005469322204589844,0.05904650688171387,-0.02729511260986328
1760285888436066800,5.14906689453125,0.0589599609375,0.05533301830291748,-0.017222702503204346
1760285888446066700,5.159066650390625,0.11388778686523438,0.04811382293701172,-0.010361790657043457
1760285888456066800,5.16906689453125,0.15453624725341797,0.03923177719116211,-0.005186498165130615
1760285888466066700,5.179066650390625,0.1689739227294922,0.030777931213378906,-0.00875234603881836
1760285888476066800,5.18906689453125,0.16922473907470703,0.02772700786590576,-0.00771862268447876
1760285888486066700,5.199066650390625,0.17206192016601562,0.028130292892456055,-0.005742669105529785
1760285888496066800,5.20906689453125,0.172637939453125,0.02775585651397705,0.004305481910705566
1760285888506066700,5.219066650390625,0.1588602066040039,0.02221500873565674,-0.02217233180999756
1760285888516066800,5.22906689453125,0.11632633209228516,0.02573537826538086,-0.05265146493911743
1760285888536066800,5.24906689453125,0.021450042724609375,0.0499882698059082,-0.08853483200073242
1760285888546066700,5.259066650390625,-0.009333610534667969,0.04814291000366211,-0.08851706981658936
1760285888556066800,5.26906689453125,-0.030655860900878906,0.03825187683105469,-0.08991074562072754
1760285888566066700,5.279066650390625,-0.04727458953857422,0.03387725353240967,-0.08662056922912598
1760285888576066800,5.28906689453125,-0.059081077575683594,0.03414177894592285,-0.08078712224960327
1760285888586066700,5.299066650390625,-0.0780181884765625,0.03160059452056885,-0.08444726467132568
1760285888596066800,5.30906689453125,-0.10407447814941406,0.031147360801696777,-0.09954231977462769
1760285888606066700,5.319066650390625,-0.12527084350585938,0.028194785118103027,-0.11104810237884521
1760285888616066800,5.32906689453125,-0.13445377349853516,0.03268718719482422,-0.11882674694061279
1760285888626066700,5.339066650390625,-0.13654708862304688,0.03346538543701172,-0.1260737180709839
1760285888636066800,5.34906689453125,-0.13641071319580078,0.03757834434509277,-0.12729966640472412
1760285888646066700,5.359066650390625,-0.1482868194580078,0.03916120529174805,-0.13201045989990234
1760285888656066800,5.36906689453125,-0.16968536376953125,0.0428164005279541,-0.1340038776397705
1760285888666066700,5.379066650390625,-0.1934671401977539,0.04174351692199707,-0.13323646783828735
1760285888676066800,5.38906689453125,-0.20298385620117188,0.03685939311981201,-0.11792683601379395
1760285888686066700,5.399066650390625,-0.19110965728759766,0.019268274307250977,-0.09246456623077393
1760285888696066800,5.40906689453125,-0.1745767593383789,0.000599980354309082,-0.0691118836402893
1760285888706066700,5.419066650390625,-0.15574932098388672,-0.014925122261047363,-0.043652236461639404
1760285888716066800,5.42906689453125,-0.13213253021240234,-0.02320694923400879,-0.02528560161590576
1760285888726066700,5.439066650390625,-0.10846900939941406,-0.02679896354675293,-0.013455629348754883
1760285888736066800,5.44906689453125,-0.08000659942626953,-0.02556324005126953,-0.010954797267913818
1760285888746066700,5.459066650390625,-0.06592464447021484,-0.019771218299865723,-0.0212288498878479
1760285888756066800,5.46906689453125,-0.05428123474121094,-0.01182401180267334,-0.030433714389801025
1760285888766066700,5.479066650390625,-0.037819862365722656,-0.006829261779785156,-0.033091843128204346
1760285888776066800,5.48906689453125,-0.016513824462890625,-0.011709928512573242,-0.02332127094268799
1760285888786066700,5.499066650390625,0.011989593505859375,-0.021266818046569824,-0.005866348743438721
1760285888796066800,5.50906689453125,0.04058361053466797,-0.026425957679748535,0.00765758752822876
1760285888806066700,5.519066650390625,0.05970001220703125,-0.017880558967590332,0.009715080261230469
1760285888816066800,5.52906689453125,0.05494499206542969,0.0016099214553833008,-0.000985860824584961
1760285888826066700,5.539066650390625,0.05495166778564453,0.0013326406478881836,-0.0014057159423828125
1760285888836066800,5.54906689453125,0.028539657592773438,0.03721058368682861,-0.026815176010131836
1760285888846066700,5.559066650390625,0.028405189514160156,0.050032854080200195,-0.03958326578140259
1760285888856066800,5.56906689453125,0.05219841003417969,0.05407881736755371,-0.04141360521316528
1760285888866066700,5.579066650390625,0.05208110809326172,0.05599641799926758,-0.03974950313568115
1760285888876066800,5.58906689453125,0.14064884185791016,0.052157044410705566,-0.04296797513961792
1760285888886066700,5.599066650390625,0.1718578338623047,0.04442727565765381,-0.03530895709991455
1760285888896066800,5.60906689453125,-0.08175373077392578,-0.010611414909362793,-0.04642331600189209
1760285888906066700,5.619066650390625,-0.10781192779541016,0.05031406879425049,0.00394362211227417
1760285888916066800,5.62906689453125,-0.07441520690917969,0.09720504283905029,0.028438150882720947
1760285888926066700,5.639066650390625,-0.08197021484375,0.07818090915679932,-0.03332042694091797
1760285888936066800,5.64906689453125,-0.0893239974975586,0.05122196674346924,-0.06180804967880249
1760285888946066700,5.659066650390625,-0.09171390533447266,0.04697847366333008,-0.03211867809295654
1760285888956066800,5.66906689453125,-0.08929634094238281,0.04157876968383789,-0.009154796600341797
1760285888966066700,5.679066650390625,-0.08436393737792969,0.033165812492370605,-0.016385793685913086
1760285888976066800,5.68906689453125,-0.07437801361083984,0.031179070472717285,-0.04679149389266968
1760285888986066700,5.699066650390625,-0.05711841583251953,0.03767204284667969,-0.08492469787597656
1760285888996066800,5.70906689453125,-0.04239082336425781,0.046533823013305664,-0.12314027547836304
1760285889006066700,5.719066650390625,-0.025450706481933594,0.05096435546875,-0.1422770619392395
1760285889016066800,5.72906689453125,-0.020658493041992188,0.048670053482055664,-0.144439697265625
1760285889026066700,5.739066650390625,-0.028059005737304688,0.03772258758544922,-0.13669103384017944
1760285889036066800,5.74906689453125,-0.03794670104980469,0.024885892868041992,-0.11764967441558838
1760285889046066700,5.759066650390625,-0.04295635223388672,0.017078161239624023,-0.09188210964202881
1760285889056066800,5.76906689453125,-0.04306793212890625,0.0069283246994018555,-0.08090907335281372
1760285889066066700,5.779066650390625,-0.03835296630859375,0.0016094446182250977,-0.08118069171905518
1760285889076066800,5.78906689453125,-0.026548385620117188,0.003725290298461914,-0.08498454093933105
1760285889086066700,5.799066650390625,-0.026844024658203125,0.005981922149658203,-0.08595031499862671
1760285889096066800,5.80906689453125,-0.0008592605590820312,-0.004072785377502441,-0.06934577226638794
1760285889106066700,5.819066650390625,0.01084136962890625,-0.022346138954162598,-0.04841601848602295
1760285889116066800,5.82906689453125,0.022826194763183594,-0.03785598278045654,-0.01913630962371826
1760285889126066700,5.839066650390625,0.03497600555419922,-0.05956768989562988,0.008036553859710693
1760285889136066800,5.84906689453125,0.03517627716064453,-0.06287705898284912,0.005438446998596191
1760285889146066700,5.859066650390625,0.04487323760986328,-0.06649446487426758,0.022399961948394775
1760285889156066800,5.86906689453125,0.0593414306640625,-0.06594336032867432,0.013909757137298584
1760285889166066700,5.879066650390625,0.09781455993652344,-0.07795548439025879,0.005280256271362305
1760285889176066800,5.88906689453125,0.0981302261352539,-0.08438074588775635,-0.0014724135398864746
1760285889186066700,5.899066650390625,0.014924049377441406,-0.041042208671569824,0.05071878433227539
1760285889196066800,5.90906689453125,-0.06582355499267578,-0.027567744255065918,0.04174762964248657
1760285889206066700,5.919066650390625,-0.122802734375,-0.022727489471435547,0.033823251724243164
1760285889216066800,5.92906689453125,-0.1489849090576172,-0.014435291290283203,0.03165346384048462
1760285889226066700,5.939066650390625,-0.15395641326904297,0.00135040283203125,0.0240023136138916
1760285889236066800,5.94906689453125,-0.1376514434814453,0.014313697814941406,0.000943303108215332
1760285889246066700,5.959066650390625,-0.10710430145263672,0.03291499614715576,-0.027481794357299805
1760285889256066800,5.96906689453125,-0.07402515411376953,0.04814350605010986,-0.05059504508972168
1760285889266066700,5.979066650390625,-0.05025482177734375,0.054198384284973145,-0.06557196378707886
1760285889276066800,5.98906689453125,-0.038097381591796875,0.05284476280212402,-0.08401715755462646
1760285889286066700,5.999066650390625,-0.037650108337402344,0.049570322036743164,-0.08235454559326172
1760285889296066800,6.00906689453125,-0.04192543029785156,0.04575216770172119,-0.09019047021865845
1760285889306066700,6.019066650390625,-0.055908203125,0.04057633876800537,-0.09356385469436646
1760285889316066800,6.02906689453125,-0.05576610565185547,0.03955245018005371,-0.09302055835723877
1760285889326066700,6.039066650390625,-0.05123615264892578,0.041158080101013184,-0.09454166889190674
1760285889336066800,6.04906689453125,-0.025287628173828125,0.045850515365600586,-0.10181629657745361
1760285889346066700,6.059066650390625,-0.018474578857421875,0.0524517297744751,-0.11458104848861694
1760285889356066800,6.06906689453125,-0.013894081115722656,0.06022369861602783,-0.13164138793945312
1760285889366066700,6.079066650390625,-0.3275117874145508,-0.017148494720458984,-0.14474618434906006
1760285889376066800,6.08906689453125,-0.3249378204345703,0.019800424575805664,-0.06993371248245239
1760285889386066700,6.099066650390625,-0.18140697479248047,0.05202829837799072,-0.0027092695236206055
1760285889396066800,6.10906689453125,-0.18209266662597656,0.06045091152191162,0.0015493035316467285
1760285889406066700,6.119066650390625,-0.11072063446044922,0.00625455379486084,-0.07219314575195312
1760285889416066800,6.12906689453125,-0.10618877410888672,-0.01883387565612793,-0.043374836444854736
1760285889426066700,6.139066650390625,-0.10886383056640625,-0.023427128791809082,-0.0027199983596801758
1760285889436066800,6.14906689453125,-0.10436820983886719,-0.015927433967590332,0.011597931385040283
1760285889446066700,6.159066650390625,-0.0998373031616211,-0.005174994468688965,-0.002938210964202881
1760285889456066800,6.16906689453125,-0.10009288787841797,-0.0011080503463745117,0.0002562999725341797
1760285889466066700,6.179066650390625,-0.07398509979248047,0.026469826698303223,-0.059180259704589844
1760285889476066800,6.18906689453125,-0.05741691589355469,0.04156363010406494,-0.07347184419631958
1760285889486066700,6.199066650390625,-0.04320526123046875,0.05600249767303467,-0.08596080541610718
1760285889496066800,6.20906689453125,-0.04573822021484375,0.07205772399902344,-0.0972335934638977
1760285889506066700,6.219066650390625,-0.0601654052734375,0.07996702194213867,-0.10654622316360474
1760285889516066800,6.22906689453125,-0.07456016540527344,0.07784414291381836,-0.11375623941421509
1760285889526066700,6.239066650390625,-0.0722665786743164,0.07396900653839111,-0.1162366271018982
1760285889536066800,6.24906689453125,-0.0724954605102539,0.07636082172393799,-0.11585533618927002
1760285889546066700,6.259066650390625,-0.017688751220703125,0.059981584548950195,-0.10815370082855225
1760285889556066800,6.26906689453125,0.0036916732788085938,0.04980874061584473,-0.11257994174957275
1760285889566066700,6.279066650390625,0.018022537231445312,0.04064297676086426,-0.11003047227859497
1760285889576066800,6.28906689453125,0.025336265563964844,0.03744626045227051,-0.10680949687957764
1760285889586066700,6.299066650390625,0.030379295349121094,0.033234477043151855,-0.10087722539901733
1760285889596066800,6.30906689453125,0.025916099548339844,0.02352011203765869,-0.083041250705719
1760285889606066700,6.319066650390625,0.009505271911621094,0.0061953067779541016,-0.0655927062034607
1760285889616066800,6.32906689453125,-0.011804580688476562,-0.01042628288269043,-0.044038236141204834
1760285889626066700,6.339066650390625,-0.02612590789794922,-0.023197054862976074,-0.023181259632110596
1760285889636066800,6.34906689453125,-0.028710365295410156,-0.03423583507537842,-0.00804227590560913
1760285889646066700,6.359066650390625,-0.017047882080078125,-0.03701937198638916,0.006963551044464111
1760285889656066800,6.36906689453125,-0.0029964447021484375,-0.041636109352111816,0.01814490556716919
1760285889666067000,6.37906689453125,0.020638465881347656,-0.050974488258361816,0.03193444013595581
1760285889676066800,6.38906689453125,0.020381927490234375,-0.04885566234588623,0.03130751848220825
1760285889686066700,6.399066650390625,0.22857952117919922,-0.06966167688369751,0.14586219191551208
1760285889696066800,6.40906689453125,0.1592121124267578,-0.022905707359313965,0.03239548206329346
1760285889706066700,6.419066650390625,0.06605339050292969,0.01686251163482666,-0.036991894245147705
1760285889716066800,6.42906689453125,0.037652015686035156,0.03320753574371338,-0.08156204223632812
1760285889726066700,6.439066650390625,0.05962085723876953,0.005326509475708008,-0.08842581510543823
1760285889736066800,6.44906689453125,0.08649063110351562,-0.08795231580734253,0.0033872127532958984
1760285889746066700,6.459066650390625,0.08704471588134766,-0.09517580270767212,-0.0005960464477539062
1760285889756066800,6.46906689453125,-0.02252483367919922,-0.042814016342163086,0.105049729347229
1760285889766066700,6.479066650390625,-0.36672496795654297,0.02701413631439209,-0.04656010866165161
1760285889776066800,6.48906689453125,-0.3662605285644531,0.022243261337280273,-0.04758656024932861
1760285889786066700,6.499066650390625,-0.21277809143066406,0.06573474407196045,-0.14747315645217896
1760285889796066800,6.50906689453125,-0.035552024841308594,0.0686044692993164,-0.22210121154785156
1760285889806066700,6.519066650390625,0.11272335052490234,0.07357418537139893,-0.2127576470375061
1760285889816066800,6.52906689453125,0.11733150482177734,0.07328343391418457,-0.15917086601257324
1760285889826066700,6.539066650390625,0.026207923889160156,0.030730843544006348,-0.12244409322738647
1760285889836066800,6.54906689453125,0.026193618774414062,0.029587507247924805,-0.1250370740890503
1760285889846066700,6.559066650390625,-0.14607810974121094,0.032544851303100586,-0.038111090660095215
1760285889856066800,6.56906689453125,-0.1507129669189453,0.047665953636169434,-0.04815024137496948
1760285889866066700,6.579066650390625,-0.1337604522705078,0.09680318832397461,-0.13545888662338257
1760285889876066800,6.58906689453125,-0.10474777221679688,0.09881258010864258,-0.17647910118103027
1760285889886067000,6.59906689453125,-0.10448837280273438,0.09908688068389893,-0.17115867137908936
1760285889896066800,6.60906689453125,0.012936592102050781,0.06702268123626709,-0.07046788930892944
1760285889906067000,6.61906689453125,-0.01824665069580078,0.035500526428222656,-0.022111475467681885
1760285889916066800,6.62906689453125,-0.05434703826904297,-0.00791788101196289,-0.030973970890045166
1760285889926066700,6.639066650390625,-0.03788948059082031,0.02081751823425293,-0.041306138038635254
1760285889936066800,6.64906689453125,0.031162261962890625,0.009525060653686523,-0.03975445032119751
1760285889946066700,6.659066650390625,0.03082275390625,0.012898683547973633,-0.03930163383483887
1760285889956066800,6.66906689453125,0.028165817260742188,0.010788440704345703,-0.031661927700042725
1760285889966066700,6.679066650390625,-0.007932662963867188,-0.008928894996643066,-0.057794809341430664
1760285889976066800,6.68906689453125,-0.027131080627441406,-0.0008827447891235352,-0.04973161220550537
1760285889986066700,6.699066650390625,-0.07015800476074219,0.008954763412475586,-0.06475526094436646
1760285889996066800,6.70906689453125,-0.10114669799804688,-0.015489697456359863,-0.01779162883758545
1760285890006066700,6.719066650390625,-0.10816287994384766,-0.006950736045837402,0.004730403423309326
1760285890016066800,6.72906689453125,-0.1319894790649414,-0.007247447967529297,0.0038419365882873535
1760285890026066700,6.739066650390625,-0.15607166290283203,0.025299429893493652,-0.10368525981903076
1760285890036066800,6.74906689453125,-0.1636371612548828,0.05201125144958496,-0.19381558895111084
1760285890046066700,6.759066650390625,-0.05875396728515625,0.08902597427368164,-0.1307528018951416
1760285890056066800,6.76906689453125,0.08191204071044922,0.017209529876708984,-0.10586309432983398
1760285890066066700,6.779066650390625,0.17221832275390625,-0.05366408824920654,-0.10465484857559204
1760285890076066800,6.78906689453125,0.17166519165039062,-0.04857003688812256,-0.10495275259017944
1760285890086066700,6.799066650390625,0.1668071746826172,-0.08145791292190552,0.036242783069610596
1760285890096066800,6.80906689453125,0.004302024841308594,-0.04383397102355957,0.1076575517654419
1760285890106066700,6.819066650390625,-0.12916183471679688,-0.04516124725341797,0.07830604910850525
1760285890116066800,6.82906689453125,-0.14755535125732422,-0.035817861557006836,0.03709232807159424
1760285890126066700,6.839066650390625,0.0064983367919921875,-0.040392398834228516,0.01695770025253296
1760285890136066800,6.84906689453125,0.17025470733642578,-0.05143857002258301,0.03151094913482666
1760285890146066700,6.859066650390625,0.12588214874267578,-0.043526411056518555,-0.05205214023590088
1760285890156066800,6.86906689453125,0.012416839599609375,-0.04569387435913086,-0.09950518608093262
1760285890166066700,6.879066650390625,-0.14896297454833984,-0.02236950397491455,-0.06074512004852295
1760285890176066800,6.88906689453125,-0.14767169952392578,-0.03205239772796631,-0.057079434394836426
1760285890186066700,6.899066650390625,-0.22316360473632812,-0.04737293720245361,0.20506501197814941
1760285890196066800,6.90906689453125,-0.31082725524902344,-0.04645073413848877,0.17996904253959656
1760285890206066700,6.919066650390625,-0.31020259857177734,-0.016914844512939453,0.18290218710899353
1760285890216066800,6.92906689453125,-0.1208333969116211,0.015320301055908203,0.10283929109573364
1760285890226066700,6.939066650390625,0.33122920989990234,0.006747126579284668,-0.02018892765045166
1760285890236066800,6.94906689453125,0.45781993865966797,0.02168881893157959,0.016699016094207764
1760285890246066700,6.959066650390625,0.3769407272338867,0.11746060848236084,0.049976646900177
1760285890256066800,6.96906689453125,0.1941232681274414,0.07727992534637451,0.009984970092773438
1760285890266066700,6.979066650390625,0.10569190979003906,0.039887189865112305,-0.0037078857421875
1760285890276066800,6.98906689453125,-0.010611534118652344,0.011324524879455566,-0.024758517742156982
1760285890286066700,6.999066650390625,-0.1481943130493164,0.0018384456634521484,-0.053962111473083496
1760285890296066800,7.00906689453125,-0.1464366912841797,-0.010641217231750488,-0.05072849988937378
1760285890306066700,7.019066650390625,-0.45557308197021484,0.06652581691741943,-0.13283348083496094
1760285890316066800,7.02906689453125,-0.5416135787963867,0.1218254566192627,-0.1793503761291504
1760285890326066700,7.039066650390625,-0.5143451690673828,0.1634202003479004,-0.21534514427185059
1760285890336066800,7.04906689453125,-0.3780193328857422,0.13799870014190674,-0.1952117681503296
1760285890346066700,7.059066650390625,-0.1821737289428711,0.11897778511047363,-0.14320701360702515
1760285890356066800,7.06906689453125,0.0002288818359375,0.13419783115386963,-0.10285782814025879
1760285890366066700,7.079066650390625,0.1336660385131836,0.15943872928619385,-0.11590033769607544
1760285890376066800,7.08906689453125,0.19684314727783203,0.18020319938659668,-0.16432666778564453
1760285890406066700,7.119066650390625,0.026833534240722656,0.15239953994750977,-0.223147451877594
1760285890426066700,7.139066650390625,-0.10538864135742188,0.07617330551147461,-0.1592731475830078
1760285890446066700,7.159066650390625,-0.1085500717163086,0.02125108242034912,-0.11572486162185669
1760285890456066800,7.16906689453125,-0.0736093521118164,0.007607102394104004,-0.09884941577911377
1760285890466066700,7.179066650390625,-0.03386116027832031,-0.0010262727737426758,-0.08610105514526367
1760285890476066800,7.18906689453125,0.0036668777465820312,-0.010965943336486816,-0.07041186094284058
1760285890486066700,7.199066650390625,0.048641204833984375,-0.02296304702758789,-0.044357240200042725
1760285890496066800,7.20906689453125,0.09644126892089844,-0.04047560691833496,-0.002032756805419922
1760285890506066700,7.219066650390625,0.1349029541015625,-0.06482481956481934,0.038323163986206055
1760285890516066800,7.22906689453125,0.1400127410888672,-0.0867798924446106,0.06039658188819885
1760285890536066800,7.24906689453125,0.044952392578125,-0.09192067384719849,0.04450803995132446
1760285890546066700,7.259066650390625,-0.0028562545776367188,-0.06905150413513184,0.0318487286567688
1760285890556066800,7.26906689453125,-0.02933979034423828,-0.04834342002868652,0.020212411880493164
1760285890566066700,7.279066650390625,-0.036834716796875,-0.03190135955810547,-0.0006971955299377441
1760285890576066800,7.28906689453125,-0.022815704345703125,-0.02422475814819336,-0.022996723651885986
1760285890586066700,7.299066650390625,-0.0063953399658203125,-0.016701817512512207,-0.038298726081848145
1760285890596066800,7.30906689453125,-0.0017652511596679688,-0.005933046340942383,-0.05806928873062134
1760285890606066700,7.319066650390625,-0.013645172119140625,0.012207508087158203,-0.07514870166778564
1760285890616066800,7.32906689453125,-0.03250598907470703,0.02362191677093506,-0.08508843183517456
1760285890626066700,7.339066650390625,-0.06081867218017578,0.024382948875427246,-0.09006792306900024
1760285890636066800,7.34906689453125,-0.09399890899658203,0.020795822143554688,-0.08612459897994995
1760285890646066700,7.359066650390625,-0.13434791564941406,0.014363646507263184,-0.06359392404556274
1760285890656066800,7.36906689453125,-0.1700725555419922,0.004032492637634277,-0.03041774034500122
1760285890666066700,7.379066650390625,-0.18214130401611328,-0.006765484809875488,-0.0035458803176879883
1760285890676066800,7.38906689453125,-0.1681060791015625,-0.013193488121032715,0.006147444248199463
1760285890686066700,7.399066650390625,-0.13258838653564453,-0.009156107902526855,0.004383981227874756
1760285890696066800,7.40906689453125,-0.0946054458618164,-0.0053681135177612305,0.0010706782341003418
1760285890706066700,7.419066650390625,-0.06597900390625,0.001148819923400879,-0.007035672664642334
1760285890716066800,7.42906689453125,-0.05159568786621094,-0.001008749008178711,-0.006210923194885254
1760285890726066700,7.439066650390625,-0.053826332092285156,-0.006860852241516113,-0.024391472339630127
1760285890736066800,7.44906689453125,-0.055924415588378906,0.0032732486724853516,-0.048838913440704346
1760285890746066700,7.459066650390625,-0.05081748962402344,0.02326810359954834,-0.07230550050735474
1760285890756066800,7.46906689453125,-0.04332923889160156,0.03893435001373291,-0.08555519580841064
1760285890766066700,7.479066650390625,-0.038372039794921875,0.04586923122406006,-0.09010976552963257
1760285890776066800,7.48906689453125,-0.02660655975341797,0.047852516174316406,-0.09001874923706055
1760285890786066700,7.499066650390625,-0.012694358825683594,0.04878365993499756,-0.07751822471618652
1760285890796066800,7.50906689453125,0.010638236999511719,0.04578816890716553,-0.068653404712677
1760285890806066700,7.519066650390625,0.03635406494140625,0.042835235595703125,-0.05755877494812012
1760285890816066800,7.52906689453125,0.05974102020263672,0.03469085693359375,-0.036512792110443115
1760285890826066700,7.539066650390625,0.07845211029052734,0.027872920036315918,-0.02028477191925049
1760285890836066800,7.54906689453125,0.09493064880371094,0.017444610595703125,-0.01059645414352417
1760285890846066700,7.559066650390625,0.09978961944580078,0.013859987258911133,-0.002036750316619873
1760285890856066800,7.56906689453125,0.08326435089111328,0.0063239336013793945,-0.003018319606781006
1760285890866066700,7.579066650390625,0.05247020721435547,0.00007271766662597656,-0.011597931385040283
1760285890886066700,7.599066650390625,-0.006748199462890625,0.002125978469848633,-0.019319474697113037
1760285890896066800,7.60906689453125,-0.01617145538330078,0.00015366077423095703,-0.017985761165618896
1760285890906066700,7.619066650390625,-0.013686180114746094,-0.0008702278137207031,-0.02311074733734131
1760285890926066700,7.639066650390625,-0.01812267303466797,-0.003483891487121582,-0.03843259811401367
1760285890936066800,7.64906689453125,-0.018006324768066406,-0.0048923492431640625,-0.05341219902038574
1760285890946066700,7.659066650390625,-0.010835647583007812,-0.007829904556274414,-0.057142674922943115
1760285890956066800,7.66906689453125,-0.008539199829101562,-0.017056941986083984,-0.0535503625869751
1760285890966066700,7.679066650390625,-0.0015287399291992188,-0.02595376968383789,-0.04828530550003052
1760285890976066800,7.68906689453125,-0.00177764892578125,-0.024857401847839355,-0.05086442828178406
1760285890986066700,7.699066650390625,0.03864097595214844,-0.025623559951782227,-0.041038185358047485
1760285891006066700,7.719066650390625,0.05759239196777344,-0.016223788261413574,-0.06455591320991516
1760285891016066800,7.72906689453125,0.04346942901611328,-0.009514451026916504,-0.08731645345687866
1760285891026066700,7.739066650390625,0.010373115539550781,0.0005648136138916016,-0.10233840346336365
1760285891036066800,7.74906689453125,-0.029848098754882812,0.010303735733032227,-0.11218774318695068
1760285891046066700,7.759066650390625,-0.0869131088256836,0.018977761268615723,-0.10895770788192749
1760285891056066800,7.76906689453125,-0.182342529296875,0.024016857147216797,-0.11162778735160828
1760285891066066700,7.779066650390625,-0.18195438385009766,0.022598981857299805,-0.10700049996376038
1760285891076066800,7.78906689453125,-0.3299226760864258,0.06072521209716797,-0.0886806845664978
1760285891086066700,7.799066650390625,-0.34632396697998047,0.06776142120361328,-0.08206284046173096
1760285891096066800,7.80906689453125,-0.3031787872314453,0.06340253353118896,-0.06835317611694336
1760285891106066700,7.819066650390625,-0.21735763549804688,0.04726874828338623,-0.045572519302368164
1760285891116066800,7.82906689453125,-0.108062744140625,0.015413403511047363,-0.03422415256500244
1760285891126066700,7.839066650390625,-0.001255035400390625,-0.008123993873596191,-0.055812060832977295
1760285891136066800,7.84906689453125,0.11277580261230469,-0.028886914253234863,-0.08776992559432983
1760285891146066700,7.859066650390625,0.18861007690429688,-0.011278986930847168,-0.07679831981658936
1760285891156066800,7.86906689453125,0.21918010711669922,0.00857245922088623,-0.04992043972015381
1760285891166066700,7.879066650390625,0.20953845977783203,0.003921627998352051,-0.03406250476837158
1760285891176066800,7.88906689453125,0.19313526153564453,-0.0072029829025268555,-0.023104846477508545
1760285891186066700,7.899066650390625,0.17688655853271484,-0.011198282241821289,-0.01175236701965332
1760285891196066800,7.90906689453125,0.15813255310058594,0.00464320182800293,-0.010750889778137207
1760285891206066700,7.919066650390625,0.1440296173095703,0.020986437797546387,-0.02335679531097412
1760285891216066800,7.92906689453125,0.1250133514404297,0.033274292945861816,-0.03211170434951782
1760285891226066700,7.939066650390625,0.10831451416015625,0.04370701313018799,-0.04362457990646362
1760285891236066800,7.94906689453125,0.09157371520996094,0.05203354358673096,-0.05299907922744751
1760285891246066700,7.959066650390625,0.07484817504882812,0.05289018154144287,-0.06027483940124512
1760285891256066800,7.96906689453125,0.060637474060058594,0.05303764343261719,-0.06190007925033569
1760285891266066700,7.979066650390625,0.03451061248779297,0.05033469200134277,-0.058636099100112915
1760285891276066800,7.98906689453125,0.0011491775512695312,0.04298555850982666,-0.058511883020401
1760285891286066700,7.999066650390625,-0.03463268280029297,0.033582091331481934,-0.0557994544506073
1760285891296066800,8.00906689453125,-0.0609130859375,0.02056264877319336,-0.044928669929504395
1760285891306066700,8.019066650390625,-0.08246231079101562,0.010963201522827148,-0.0378362238407135
1760285891316066800,8.02906689453125,-0.09447765350341797,-0.0025589466094970703,-0.034526675939559937
1760285891326066700,8.039066650390625,-0.09453678131103516,-0.010371685028076172,-0.03677397966384888
1760285891336066800,8.04906689453125,-0.08257007598876953,-0.01349031925201416,-0.03817093372344971
1760285891346066700,8.059066650390625,-0.06096363067626953,-0.024137377738952637,-0.03909015655517578
1760285891356066800,8.06906689453125,-0.04657459259033203,-0.03730416297912598,-0.0385780930519104
1760285891366066700,8.079066650390626,-0.03709220886230469,-0.05030512809753418,-0.04479062557220459
1760285891376066800,8.08906689453125,-0.039687156677246094,-0.058413147926330566,-0.03845489025115967
1760285891386066700,8.099066650390625,-0.04951763153076172,-0.06177651882171631,-0.026071131229400635
1760285891396066800,8.10906689453125,-0.056888580322265625,-0.060292720794677734,-0.014698326587677002
1760285891406066700,8.119066650390625,-0.06183815002441406,-0.058173298835754395,-0.015882015228271484
1760285891416066800,8.12906689453125,-0.05003547668457031,-0.04564034938812256,-0.02750539779663086
1760285891426066700,8.139066650390625,-0.02153301239013672,-0.032122135162353516,-0.035916805267333984
1760285891446066700,8.159066650390624,0.06890487670898438,-0.023078083992004395,-0.03551238775253296
1760285891456066800,8.16906689453125,0.11410045623779297,-0.02625894546508789,-0.02129495143890381
1760285891466066700,8.179066650390626,0.14983463287353516,-0.03850877285003662,-0.0037920475006103516
1760285891476066800,8.18906689453125,0.1737213134765625,-0.04986894130706787,0.010723292827606201
1760285891486066700,8.199066650390625,0.1761465072631836,-0.06248730421066284,0.005264103412628174
1760285891496066800,8.20906689453125,0.16667747497558594,-0.057132720947265625,-0.017812013626098633
1760285891506066700,8.219066650390625,0.13811206817626953,-0.031021714210510254,-0.04612851142883301
1760285891516066800,8.22906689453125,0.10954952239990234,-0.0048781633377075195,-0.07197219133377075
1760285891526066700,8.239066650390624,0.08812904357910156,0.014617443084716797,-0.083163321018219
1760285891536066800,8.24906689453125,0.0786447525024414,0.025410890579223633,-0.08133870363235474
1760285891546066700,8.259066650390626,0.08356857299804688,0.03137648105621338,-0.06922966241836548
1760285891556066800,8.26906689453125,0.07897281646728516,0.027274250984191895,-0.05937492847442627
1760285891566066700,8.279066650390625,0.06959724426269531,0.034685373306274414,-0.055081069469451904
1760285891576066800,8.28906689453125,0.053048133850097656,0.04166066646575928,-0.06343936920166016
1760285891596066800,8.30906689453125,0.0032329559326171875,0.07171821594238281,-0.07594144344329834
1760285891606066700,8.319066650390624,-0.010904312133789062,0.07645153999328613,-0.0693594217300415
1760285891616066800,8.32906689453125,-0.010646820068359375,0.06487154960632324,-0.058933794498443604
1760285891626066700,8.339066650390626,0.00872802734375,0.044463157653808594,-0.03569531440734863
1760285891636066800,8.34906689453125,0.039994239807128906,0.022431373596191406,-0.019643306732177734
1760285891646066700,8.359066650390625,0.08318042755126953,0.0053948163986206055,-0.01132047176361084
1760285891656066800,8.36906689453125,0.11444282531738281,-0.0050612688064575195,-0.00807410478591919
1760285891666066700,8.379066650390625,0.13152408599853516,-0.014939665794372559,-0.0074274539947509766
1760285891676066800,8.38906689453125,0.13456344604492188,-0.02065575122833252,-0.016367733478546143
1760285891686066700,8.399066650390624,0.12340831756591797,-0.02529466152191162,-0.02246779203414917
1760285891696066800,8.40906689453125,0.09800338745117188,-0.02574920654296875,-0.030122041702270508
1760285891706066700,8.419066650390626,0.07257080078125,-0.028372764587402344,-0.03794008493423462
1760285891716066800,8.42906689453125,0.04459667205810547,-0.025309443473815918,-0.04678159952163696
1760285891726066700,8.439066650390625,0.021300315856933594,-0.02613353729248047,-0.05350625514984131
1760285891736066800,8.44906689453125,0.0075130462646484375,-0.020744681358337402,-0.06099677085876465
1760285891746066700,8.459066650390625,0.008083343505859375,-0.024277329444885254,-0.07210826873779297
1760285891756066800,8.46906689453125,0.013347625732421875,-0.01738297939300537,-0.08564776182174683
1760285891766066700,8.479066650390624,0.02564716339111328,-0.00726628303527832,-0.0929977297782898
1760285891776066800,8.48906689453125,0.040139198303222656,-0.0009260177612304688,-0.1020088791847229
1760285891786066700,8.499066650390626,0.054427146911621094,0.006369113922119141,-0.10795074701309204
1760285891796066800,8.50906689453125,0.05422019958496094,0.007072091102600098,-0.11030334234237671
1760285891806066700,8.519066650390625,0.0756378173828125,0.0286635160446167,-0.1533101201057434
1760285891816066800,8.52906689453125,0.07328987121582031,0.046895384788513184,-0.18069380521774292
1760285891826066700,8.539066650390625,0.06879711151123047,0.06133270263671875,-0.19202303886413574
1760285891836066800,8.54906689453125,0.05492210388183594,0.07218682765960693,-0.17592495679855347
1760285891846066700,8.559066650390625,0.026861190795898438,0.06730377674102783,-0.14744335412979126
1760285891856066800,8.56906689453125,-0.015468597412109375,0.05681490898132324,-0.10459542274475098
1760285891866066700,8.579066650390626,-0.06497001647949219,0.04624807834625244,-0.06659036874771118
1760285891876066800,8.58906689453125,-0.09788703918457031,0.03982365131378174,-0.0353313684463501
1760285891886066700,8.599066650390625,-0.09994888305664062,0.031049609184265137,-0.027865111827850342
1760285891896066800,8.60906689453125,-0.06148529052734375,0.022170305252075195,-0.02601677179336548
1760285891906066700,8.619066650390625,0.015084266662597656,0.015761137008666992,-0.017972350120544434
1760285891916066800,8.62906689453125,0.09630393981933594,0.007887482643127441,-0.022525787353515625
1760285891926066700,8.639066650390625,0.16304588317871094,-0.002811431884765625,-0.032350003719329834
1760285891936066800,8.64906689453125,0.19868087768554688,-0.007893919944763184,-0.042614638805389404
1760285891946066700,8.659066650390624,0.20592403411865234,-0.011855244636535645,-0.0470619797706604
1760285891956066800,8.66906689453125,0.19187450408935547,-0.022643208503723145,-0.046326518058776855
1760285891966066700,8.679066650390626,0.17803001403808594,-0.03213787078857422,-0.0322917103767395
1760285891976066800,8.68906689453125,0.14992904663085938,-0.044359683990478516,-0.014662504196166992
1760285891986066700,8.699066650390625,0.1170053482055664,-0.046895384788513184,0.007320702075958252
1760285891996066800,8.70906689453125,0.08875751495361328,-0.049077630043029785,0.018445491790771484
1760285892006066700,8.719066650390625,0.0651397705078125,-0.04565918445587158,0.030798256397247314
1760285892016066800,8.72906689453125,0.046164512634277344,-0.039263367652893066,0.03456282615661621
1760285892026066700,8.739066650390624,0.029540061950683594,-0.027984261512756348,0.025736331939697266
1760285892036066800,8.74906689453125,0.017669677734375,-0.01640152931213379,0.0073326826095581055
1760285892046066700,8.759066650390626,0.02734375,0.002795696258544922,-0.01026308536529541
1760285892056066800,8.76906689453125,0.04905128479003906,0.022045254707336426,-0.017080366611480713
1760285892066066700,8.779066650390625,0.07792377471923828,0.034101009368896484,-0.014666855335235596
1760285892076066800,8.78906689453125,0.11393165588378906,0.04597008228302002,0.005596578121185303
1760285892086066700,8.799066650390625,-0.4103994369506836,0.03570246696472168,-0.07061320543289185
1760285892096066800,8.80906689453125,-0.5591249465942383,0.10884463787078857,0.046147555112838745
1760285892106066700,8.819066650390624,-0.712101936340332,0.20112717151641846,0.0674947202205658
1760285892116066800,8.82906689453125,-0.7882156372070312,0.13286221027374268,0.1172243058681488
1760285892126066700,8.839066650390626,-0.6754837036132812,0.03275883197784424,0.2714739143848419
1760285892136066800,8.84906689453125,-0.5321445465087891,-0.041159629821777344,0.4070375859737396
1760285892146066700,8.859066650390625,-0.39536380767822266,-0.10169011354446411,0.4469437599182129
1760285892156066800,8.86906689453125,-0.27432918548583984,-0.1483398675918579,0.42170029878616333
1760285892166066700,8.879066650390625,-0.1336212158203125,-0.17431455850601196,0.3503192365169525
1760285892176066800,8.88906689453125,0.043463706970214844,-0.17914003133773804,0.2543734312057495
1760285892186066700,8.899066650390624,0.2256937026977539,-0.16803312301635742,0.157958984375
1760285892196066800,8.90906689453125,0.39614009857177734,-0.14338833093643188,0.04926329851150513
1760285892206066700,8.919066650390626,0.5066080093383789,-0.11701834201812744,-0.04925030469894409
1760285892216066800,8.92906689453125,0.5499534606933594,-0.07750856876373291,-0.12063783407211304
1760285892226066700,8.939066650390625,0.5334596633911133,-0.044566571712493896,-0.15213161706924438
1760285892236066800,8.94906689453125,0.4904518127441406,-0.023614108562469482,-0.16223818063735962
1760285892246066700,8.959066650390625,0.40886878967285156,0.020203709602355957,-0.1959003210067749
1760285892256066800,8.96906689453125,0.29587841033935547,0.08992207050323486,-0.23805183172225952
1760285892266066700,8.979066650390624,0.2952394485473633,0.09164798259735107,-0.24486470222473145
1760285892276066800,8.98906689453125,0.12213993072509766,0.22962099313735962,-0.3072047233581543
1760285892286066700,8.999066650390626,0.08309078216552734,0.2736082077026367,-0.3219197392463684
1760285892296066800,9.00906689453125,0.09196662902832031,0.3036940097808838,-0.3497921824455261
1760285892306066700,9.019066650390625,0.12254142761230469,0.3180493712425232,-0.3822176456451416
1760285892316066800,9.02906689453125,0.15341567993164062,0.32675135135650635,-0.4196830987930298
1760285892326066700,9.039066650390625,0.17748546600341797,0.3212760090827942,-0.4389621615409851
1760285892336066800,9.04906689453125,0.1828165054321289,0.2990531921386719,-0.42547357082366943
1760285892346066700,9.059066650390625,0.16469573974609375,0.26091068983078003,-0.39620548486709595
1760285892356066800,9.06906689453125,0.11833477020263672,0.20745092630386353,-0.352855384349823
1760285892366066700,9.079066650390626,0.11979007720947266,0.19275623559951782,-0.3532746434211731
1760285892376066800,9.08906689453125,0.05868053436279297,0.1400432586669922,-0.301941454410553
1760285892386066700,9.099066650390625,-0.022068023681640625,0.07679283618927002,-0.19230568408966064
1760285892396066800,9.10906689453125,-0.021881103515625,0.07191288471221924,-0.19718974828720093
1760285892406066700,9.119066650390625,-0.04592132568359375,0.006803393363952637,-0.12186789512634277
1760285892416066800,9.12906689453125,-0.04611015319824219,0.0048972368240356445,-0.127874493598938
1760285892426066700,9.139066650390625,-0.07721614837646484,-0.03376734256744385,-0.09855836629867554
1760285892436066800,9.14906689453125,-0.07087421417236328,-0.03591930866241455,-0.029296159744262695
1760285892446066700,9.159066650390624,-0.06828498840332031,-0.04378402233123779,-0.005017280578613281
1760285892456066800,9.16906689453125,-0.03328990936279297,-0.03477358818054199,0.0023598670959472656
1760285892466066700,9.179066650390626,-0.03231620788574219,-0.039400339126586914,0.008662283420562744
1760285892476066800,9.18906689453125,0.028202056884765625,-0.06070578098297119,0.030020833015441895
1760285892486066700,9.199066650390625,0.03584480285644531,-0.07960367202758789,0.04630553722381592
1760285892496066800,9.20906689453125,0.036246299743652344,-0.08386349678039551,0.04540145397186279
1760285892506066700,9.219066650390625,-0.004286766052246094,-0.10564851760864258,0.0868569016456604
1760285892516066800,9.22906689453125,-0.035572052001953125,-0.10135793685913086,0.09356391429901123
1760285892526066700,9.239066650390624,-0.06488990783691406,-0.08744728565216064,0.09572261571884155
1760285892536066800,9.24906689453125,-0.07912254333496094,-0.0700986385345459,0.08884471654891968
1760285892546066700,9.259066650390626,-0.09591197967529297,-0.05163252353668213,0.06700223684310913
1760285892556066800,9.26906689453125,-0.10324287414550781,-0.030187487602233887,0.04201221466064453
1760285892566066700,9.279066650390625,-0.10104560852050781,-0.012439131736755371,0.029924750328063965
1760285892576066800,9.28906689453125,-0.08456802368164062,0.0019414424896240234,0.011668622493743896
1760285892586066700,9.299066650390625,-0.04187488555908203,0.015070319175720215,-0.00653761625289917
1760285892596066800,9.30906689453125,0.01748943328857422,0.0309600830078125,-0.0014789700508117676
1760285892606066700,9.319066650390624,0.07203102111816406,0.043398261070251465,0.006170928478240967
1760285892616066800,9.32906689453125,0.11952590942382812,0.0512537956237793,0.005022227764129639
1760285892626066700,9.339066650390626,0.14326858520507812,0.06204390525817871,-0.008458554744720459
1760285892636066800,9.34906689453125,0.15061378479003906,0.08734691143035889,-0.027657389640808105
1760285892646066700,9.359066650390625,0.14849376678466797,0.12421178817749023,-0.05317765474319458
1760285892656066800,9.36906689453125,0.13921356201171875,0.1463717222213745,-0.06469666957855225
1760285892666066700,9.379066650390625,0.1393136978149414,0.14032363891601562,-0.07364833354949951
1760285892676066800,9.38906689453125,0.091278076171875,0.14061033725738525,-0.04326426982879639
1760285892686066700,9.399066650390624,0.0860586166381836,0.13337492942810059,-0.03290963172912598
1760285892696066800,9.40906689453125,0.0925588607788086,0.13293671607971191,-0.01590174436569214
1760285892706066700,9.419066650390626,0.09416961669921875,0.12618231773376465,0.005643248558044434
1760285892716066800,9.42906689453125,0.07681941986083984,0.11114251613616943,0.03999441862106323
1760285892726066700,9.439066650390625,0.026180267333984375,0.0997234582901001,0.07099401950836182
1760285892736066800,9.44906689453125,-0.045635223388671875,0.0813591480255127,0.1278698444366455
1760285892746066700,9.459066650390625,-0.12202930450439453,0.07182157039642334,0.162804514169693
1760285892756066800,9.46906689453125,-0.17663955688476562,0.06213581562042236,0.18235456943511963
1760285892766066700,9.479066650390624,-0.22165203094482422,0.05305290222167969,0.18670552968978882
1760285892776066800,9.48906689453125,-0.2645530700683594,0.043416619300842285,0.19464123249053955
1760285892786066700,9.499066650390626,-0.29804515838623047,0.030759811401367188,0.18411386013031006
1760285892796066800,9.50906689453125,-0.2933511734008789,0.024907946586608887,0.14928743243217468
1760285892806066700,9.519066650390625,-0.26960277557373047,0.02577662467956543,0.11671823263168335
1760285892816066800,9.52906689453125,-0.23637104034423828,0.01584315299987793,0.1063661277294159
1760285892826066700,9.539066650390625,-0.20076274871826172,-0.00571441650390625,0.10592523217201233
1760285892836066800,9.54906689453125,-0.14360713958740234,-0.027224063873291016,0.10310158133506775
1760285892846066700,9.559066650390625,-0.07930850982666016,-0.04409050941467285,0.10164222121238708
1760285892856066800,9.56906689453125,-0.02708148956298828,-0.048885226249694824,0.08664965629577637
1760285892866066700,9.579066650390626,0.022698402404785156,-0.06365096569061279,0.06276369094848633
1760285892876066800,9.58906689453125,0.06287002563476562,-0.06946015357971191,0.029937148094177246
1760285892886066700,9.599066650390625,0.09595870971679688,-0.0576024055480957,0.007863223552703857
1760285892896066800,9.60906689453125,0.11968326568603516,-0.04984784126281738,-0.009126901626586914
1760285892906066700,9.619066650390625,0.12210941314697266,-0.041487812995910645,-0.032500267028808594
1760285892916066800,9.62906689453125,0.12235260009765625,-0.04474508762359619,-0.0347057580947876
1760285892926066700,9.639066650390625,0.07947063446044922,-0.01729273796081543,-0.043062686920166016
1760285892936066800,9.64906689453125,0.05803680419921875,-0.010834693908691406,-0.028149783611297607
1760285892946066700,9.659066650390624,0.048480987548828125,-0.003291010856628418,-0.00315171480178833
1760285892956066800,9.66906689453125,0.034157752990722656,0.007160186767578125,-0.0007200241088867188
1760285892966066700,9.679066650390626,0.034256935119628906,0.005527019500732422,-0.0022999048233032227
1760285892976066800,9.68906689453125,0.0032672882080078125,0.04931139945983887,-0.024938881397247314
1760285892986066700,9.699066650390625,-0.0038881301879882812,0.06299400329589844,-0.035445988178253174
1760285892996066800,9.70906689453125,-0.003928184509277344,0.0745389461517334,-0.05140107870101929
1760285893006066700,9.719066650390625,-0.0040149688720703125,0.08845818042755127,-0.06347775459289551
1760285893016066800,9.72906689453125,-0.004118919372558594,0.08788371086120605,-0.06653863191604614
1760285893026066700,9.739066650390624,0.038840293884277344,0.101845383644104,-0.06988072395324707
1760285893036066800,9.74906689453125,0.0746011734008789,0.09456145763397217,-0.056105971336364746
1760285893046066700,9.759066650390626,0.11287975311279297,0.06715774536132812,-0.04454272985458374
1760285893056066800,9.76906689453125,0.10326194763183594,0.07682478427886963,-0.06222504377365112
1760285893066066700,9.779066650390625,0.07203483581542969,0.0900263786315918,-0.06712692975997925
1760285893076066800,9.78906689453125,0.03129863739013672,0.08693945407867432,-0.06271636486053467
1760285893086066700,9.799066650390625,0.03137397766113281,0.0843968391418457,-0.06697440147399902
1760285893096066800,9.80906689453125,-0.04752635955810547,0.06999897956848145,-0.034492045640945435
1760285893106066700,9.819066650390624,-0.08573341369628906,0.0727698802947998,-0.0227968692779541
1760285893116066800,9.82906689453125,-0.08561038970947266,0.07223403453826904,-0.021630018949508667
1760285893126066700,9.839066650390626,-0.08074283599853516,0.04617416858673096,-0.0074693262577056885
1760285893136066800,9.84906689453125,-0.04240608215332031,0.02985203266143799,0.013274729251861572
1760285893146066700,9.859066650390625,-0.04241180419921875,0.029834508895874023,0.013128429651260376
1760285893156066800,9.86906689453125,-0.03772258758544922,0.00020253658294677734,0.023476481437683105
1760285893166066700,9.879066650390625,-0.08323478698730469,0.0027571916580200195,0.0010688304901123047
1760285893176066800,9.88906689453125,-0.08315563201904297,0.0009888410568237305,-0.0015047788619995117
1760285893186066700,9.899066650390624,-0.0999155044555664,-0.005833148956298828,-0.005436420440673828
1760285893196066800,9.90906689453125,-0.0785055160522461,-0.01919078826904297,0.01094016432762146
1760285893206066700,9.919066650390626,-0.06907367706298828,-0.030562162399291992,0.023801445960998535
1760285893216066800,9.92906689453125,-0.07398128509521484,-0.03070247173309326,0.028277873992919922
1760285893226066700,9.939066650390625,-0.09088134765625,-0.03119838237762451,0.026652395725250244
1760285893236066800,9.94906689453125,-0.11264896392822266,-0.01902937889099121,0.02981412410736084
1760285893246066700,9.959066650390625,-0.12489986419677734,-0.012934088706970215,0.02244362235069275
1760285893256066800,9.96906689453125,-0.12523841857910156,-0.010430455207824707,0.02151387929916382
1760285893266066700,9.979066650390624,-0.07051753997802734,0.0020066499710083008,0.006918400526046753
1760285893276066800,9.98906689453125,-0.030175209045410156,0.005064725875854492,0.018872588872909546
1760285893286066700,9.999066650390626,-0.013721466064453125,0.007209420204162598,0.022489458322525024
1760285893296066800,10.00906689453125,-0.013859748840332031,0.007539629936218262,0.020425379276275635
1760285893306066700,10.019066650390625,-0.028171539306640625,0.0067054033279418945,0.03148403763771057
1760285893316066800,10.02906689453125,-0.035233497619628906,0.005731821060180664,0.034033000469207764
1760285893326066700,10.039066650390625,-0.032912254333496094,0.0037262439727783203,0.0430225133895874
1760285893336066800,10.04906689453125,-0.03073406219482422,0.0003459453582763672,0.05631706118583679
1760285893346066700,10.059066650390625,-0.031032562255859375,0.002522587776184082,0.05535149574279785
1760285893356066800,10.06906689453125,-0.01459503173828125,-0.0068738460540771484,0.052466511726379395
1760285893366066700,10.079066650390626,-0.014914512634277344,-0.0042542219161987305,0.05212011933326721
1760285893376066800,10.08906689453125,0.035114288330078125,0.011988639831542969,0.02033078670501709
1760285893386066700,10.099066650390625,0.03500938415527344,0.02909266948699951,0.018955349922180176
1760285893396066800,10.10906689453125,0.008957862854003906,0.03554487228393555,0.014933526515960693
1760285893406066700,10.119066650390625,-0.021718978881835938,0.036106228828430176,0.006884664297103882
1760285893416066800,10.12906689453125,-0.02135181427001953,0.03269088268280029,0.006243020296096802
1760285893426066700,10.139066650390625,-0.026032447814941406,0.033699989318847656,-0.0044754743576049805
1760285893436066800,10.14906689453125,0.016880035400390625,0.03199923038482666,-0.011438131332397461
1760285893446066700,10.159066650390624,0.07390785217285156,0.029439210891723633,-0.012770771980285645
1760285893456066800,10.16906689453125,0.13326454162597656,0.02195000648498535,-0.020733654499053955
1760285893466066700,10.179066650390626,0.1330547332763672,0.02088344097137451,-0.028070300817489624
1760285893476066800,10.18906689453125,0.21219444274902344,0.016745924949645996,-0.02871394157409668
1760285893486066700,10.199066650390625,0.23177337646484375,0.022066473960876465,-0.043933361768722534
1760285893496066800,10.20906689453125,0.22997570037841797,0.03313469886779785,-0.061780720949172974
1760285893506066700,10.219066650390625,0.20672988891601562,0.052729129791259766,-0.08772158622741699
1760285893516066800,10.22906689453125,0.1572246551513672,0.07394230365753174,-0.11689615249633789
1760285893526066700,10.239066650390624,0.10304927825927734,0.07996058464050293,-0.13655740022659302
1760285893536066800,10.24906689453125,0.03244781494140625,0.08441925048828125,-0.14355182647705078
1760285893546066700,10.259066650390626,0.03375244140625,0.07180345058441162,-0.15002655982971191
1760285893556066800,10.26906689453125,-0.11124897003173828,0.04975700378417969,-0.0621301531791687
1760285893566066700,10.279066650390625,-0.11067962646484375,0.04392290115356445,-0.06641927361488342
1760285893576066800,10.28906689453125,-0.13939476013183594,0.01593482494354248,-0.03092014789581299
1760285893586066700,10.299066650390625,-0.1086578369140625,0.012313485145568848,-0.020816564559936523
1760285893596066800,10.30906689453125,-0.07082748413085938,0.007121562957763672,-0.0032108426094055176
1760285893606066700,10.319066650390624,-0.04224872589111328,-0.009750008583068848,0.013597160577774048
1760285893616066800,10.32906689453125,-0.022896766662597656,-0.02913665771484375,0.033747583627700806
1760285893636066800,10.34906689453125,-0.038387298583984375,-0.04512357711791992,0.055912673473358154
1760285893646066700,10.359066650390625,-0.07107353210449219,-0.042469024658203125,0.04494282603263855
1760285893656066800,10.36906689453125,-0.10847663879394531,-0.028110980987548828,0.037285447120666504
1760285893666066700,10.379066650390625,-0.14594268798828125,-0.017675042152404785,0.028541147708892822
1760285893676066800,10.38906689453125,-0.1789407730102539,-0.004668116569519043,0.012849986553192139
1760285893686066700,10.399066650390624,-0.2026224136352539,0.015176773071289062,-0.0027336180210113525
1760285893696066800,10.40906689453125,-0.1978311538696289,0.02749025821685791,-0.006126105785369873
1760285893716066800,10.42906689453125,-0.13146114349365234,0.013762831687927246,0.00918889045715332
1760285893726066700,10.439066650390625,-0.0815591812133789,-0.004862070083618164,0.030716657638549805
1760285893736066800,10.44906689453125,-0.043323516845703125,-0.0234755277633667,0.04261520504951477
1760285893746066700,10.459066650390625,-0.031160354614257812,-0.034595489501953125,0.03529024124145508
1760285893756066800,10.46906689453125,-0.035536766052246094,-0.02577531337738037,0.013903111219406128
1760285893766066700,10.479066650390624,-0.05663013458251953,-0.0053675174713134766,-0.0029210448265075684
1760285893776066800,10.48906689453125,-0.08263397216796875,0.013429760932922363,-0.013174057006835938
1760285893786066700,10.499066650390626,-0.10166645050048828,0.021826624870300293,-0.0069235265254974365
1760285893796066800,10.50906689453125,-0.10409259796142578,0.019697189331054688,0.01467519998550415
1760285893806066700,10.519066650390625,-0.0921468734741211,0.01582646369934082,0.043732523918151855
1760285893826066700,10.539066650390625,-0.041431427001953125,0.0295332670211792,0.03940466046333313
1760285893846066700,10.559066650390625,-0.009600639343261719,0.07442963123321533,-0.02357354760169983
1760285893856066800,10.56906689453125,-0.0070037841796875,0.09722340106964111,-0.05087640881538391
1760285893866066700,10.579066650390626,-0.006892204284667969,0.09648478031158447,-0.050446391105651855
1760285893876066800,10.58906689453125,0.0051250457763671875,0.1157904863357544,-0.07499244809150696
1760285893886066700,10.599066650390625,0.029105186462402344,0.1113886833190918,-0.0725925862789154
1760285893896066800,10.60906689453125,0.05304145812988281,0.10475671291351318,-0.07081669569015503
1760285893906066700,10.619066650390625,0.07460212707519531,0.09057259559631348,-0.06746071577072144
1760285893916066800,10.62906689453125,0.07452774047851562,0.09056663513183594,-0.06946671009063721
1760285893926066700,10.639066650390625,-0.1027975082397461,0.06893599033355713,0.02421751618385315
1760285893936066800,10.64906689453125,-0.057559967041015625,0.06306672096252441,-0.004340112209320068
1760285893946066700,10.659066650390624,-0.041741371154785156,0.054527997970581055,-0.02489224076271057
1760285893956066800,10.66906689453125,-0.04988670349121094,0.04970228672027588,-0.026051759719848633
1760285893966066700,10.679066650390626,-0.05104255676269531,0.05771744251251221,-0.029617607593536377
1760285893976066800,10.68906689453125,0.009845733642578125,0.04779481887817383,-0.037217020988464355
1760285893986066700,10.699066650390625,0.030002593994140625,0.04230153560638428,-0.030539214611053467
1760285893996066800,10.70906689453125,0.05755424499511719,0.039881229400634766,-0.02673429250717163
1760285894006066700,10.719066650390625,0.07584476470947266,0.032846927642822266,-0.017298519611358643
1760285894016066800,10.72906689453125,0.07799148559570312,0.018912672996520996,-0.0039539337158203125
1760285894026066700,10.739066650390624,0.06618881225585938,0.007292985916137695,0.010120302438735962
1760285894036066800,10.74906689453125,0.04995441436767578,0.0033069849014282227,0.013393551111221313
1760285894046066700,10.759066650390626,0.050620079040527344,-0.001365065574645996,0.01587560772895813
1760285894056066800,10.76906689453125,0.02724933624267578,0.02082085609436035,-0.006568819284439087
1760285894066066700,10.779066650390625,0.027685165405273438,0.0172654390335083,-0.006935149431228638
1760285894076066800,10.78906689453125,-0.029512405395507812,0.03128159046173096,-0.0190754234790802
1760285894086066700,10.799066650390625,-0.05827522277832031,0.030455350875854492,-0.013704389333724976
1760285894096066800,10.80906689453125,-0.08236026763916016,0.030759692192077637,-0.00017651915550231934
1760285894106066700,10.819066650390624,-0.09932804107666016,0.024779915809631348,-0.006759524345397949
1760285894116066800,10.82906689453125,-0.1139230728149414,0.03129982948303223,-0.016687601804733276
1760285894126066700,10.839066650390626,-0.1213388442993164,0.040471673011779785,-0.02328348159790039
1760285894136066800,10.84906689453125,-0.12158966064453125,0.042615413665771484,-0.02270108461380005
1760285894146066700,10.859066650390625,-0.14337921142578125,0.04460787773132324,-0.031989604234695435
1760285894156066800,10.86906689453125,-0.14587879180908203,0.04092609882354736,-0.04291108250617981
1760285894166066700,10.879066650390625,-0.1434793472290039,0.044031381607055664,-0.042380690574645996
1760285894176066800,10.88906689453125,-0.13385963439941406,0.03752481937408447,-0.02888241410255432
1760285894186066700,10.899066650390624,-0.13616371154785156,0.0257875919342041,-0.010868668556213379
1760285894196066800,10.90906689453125,-0.13605308532714844,0.025776267051696777,-0.007590889930725098
1760285894206066700,10.919066650390626,-0.1622638702392578,-0.005428194999694824,0.010204911231994629
1760285894216066800,10.92906689453125,-0.15495014190673828,-0.002886176109313965,0.0026412904262542725
1760285894226066700,10.939066650390625,-0.14063644409179688,0.0088881254196167,-0.007624417543411255
1760285894236066800,10.94906689453125,-0.12891769409179688,0.014816880226135254,-0.021429866552352905
1760285894246066700,10.959066650390625,-0.0934896469116211,0.005478620529174805,-0.017470717430114746
1760285894256066800,10.96906689453125,-0.03429985046386719,-0.009477734565734863,0.010650455951690674
1760285894266066700,10.979066650390624,0.02962779998779297,-0.023768305778503418,0.032326579093933105
1760285894276066800,10.98906689453125,0.08651351928710938,-0.039224982261657715,0.04889625310897827
1760285894286066700,10.999066650390626,0.13649272918701172,-0.04499363899230957,0.07006263732910156
1760285894296066800,11.00906689453125,0.1749887466430664,-0.04972362518310547,0.08718770742416382
1760285894306066700,11.019066650390625,0.1754140853881836,-0.051970839500427246,0.09113729000091553
1760285894316066800,11.02906689453125,0.25019359588623047,-0.053544044494628906,0.06911337375640869
1760285894326066700,11.039066650390625,0.2652750015258789,-0.04968369007110596,0.04313710331916809
1760285894336066800,11.04906689453125,0.2470264434814453,-0.03074336051940918,0.02621135115623474
1760285894346066700,11.059066650390625,0.21699047088623047,-0.008513450622558594,0.013811290264129639
1760285894356066800,11.06906689453125,0.18225479125976562,0.0035247802734375,0.018246501684188843
1760285894366066700,11.079066650390626,0.18339157104492188,-0.005520462989807129,0.01811802387237549
1760285894376066800,11.08906689453125,0.0574493408203125,-0.01771402359008789,0.018366992473602295
1760285894386066700,11.099066650390625,0.02215862274169922,-0.0006481409072875977,-0.021036475896835327
1760285894396066800,11.10906689453125,0.017523765563964844,0.03643202781677246,-0.057049453258514404
1760285894406066700,11.119066650390625,0.029195785522460938,0.06882607936859131,-0.08930066227912903
1760285894416066800,11.12906689453125,0.028647422790527344,0.07107281684875488,-0.09613853693008423
1760285894426066700,11.139066650390625,0.05678272247314453,0.11873829364776611,-0.16927775740623474
1760285894436066800,11.14906689453125,0.061247825622558594,0.13580024242401123,-0.1913968026638031
1760285894446066700,11.159066650390624,0.0493011474609375,0.14321517944335938,-0.20557278394699097
1760285894456066800,11.16906689453125,0.028189659118652344,0.14107024669647217,-0.2048884630203247
1760285894466066700,11.179066650390626,0.028923988342285156,0.13503813743591309,-0.20603221654891968
1760285894476066800,11.18906689453125,-0.020461082458496094,0.13304078578948975,-0.1672365963459015
1760285894486066700,11.199066650390625,-0.04106426239013672,0.11643266677856445,-0.128017395734787
1760285894496066800,11.20906689453125,-0.04025077819824219,0.11043906211853027,-0.127130389213562
1760285894506066700,11.219066650390625,-0.053946495056152344,0.07420158386230469,-0.07685580849647522
1760285894516066800,11.22906689453125,-0.06775283813476562,0.04342663288116455,-0.046450287103652954
1760285894526066700,11.239066650390624,-0.08165836334228516,0.030063867568969727,-0.014070779085159302
1760285894536066800,11.24906689453125,-0.08365821838378906,0.024433612823486328,-0.010242968797683716
1760285894546066700,11.259066650390626,-0.08328437805175781,0.01423180103302002,-0.011014491319656372
1760285894556066800,11.26906689453125,-0.07806110382080078,0.006277680397033691,-0.0034416615962982178
1760285894566066700,11.279066650390625,-0.077545166015625,0.0028290748596191406,-0.0018340349197387695
1760285894576066800,11.28906689453125,-0.0674905776977539,-0.012539863586425781,0.017994046211242676
1760285894586066700,11.299066650390625,-0.06705856323242188,-0.015764355659484863,0.017989009618759155
1760285894596066800,11.30906689453125,-0.07144641876220703,-0.045226216316223145,0.05574005842208862
1760285894606066700,11.319066650390624,-0.0710763931274414,-0.0480731725692749,0.055354148149490356
1760285894616066800,11.32906689453125,-0.07313919067382812,-0.0647956132888794,0.06529200077056885
1760285894626066700,11.339066650390626,-0.06337738037109375,-0.051640987396240234,0.04914155602455139
1760285894636066800,11.34906689453125,-0.04197978973388672,-0.03152132034301758,0.024656325578689575
1760285894646066700,11.359066650390625,-0.008835792541503906,-0.007678866386413574,-0.010729968547821045
1760285894656066800,11.36906689453125,0.017073631286621094,0.016345977783203125,-0.03975054621696472
1760285894666066700,11.379066650390625,0.031114578247070312,0.03229570388793945,-0.05495360493659973
1760285894676066800,11.38906689453125,0.02859020233154297,0.03467261791229248,-0.04924279451370239
1760285894686066700,11.399066650390624,0.011928558349609375,0.028232693672180176,-0.040980249643325806
1760285894696066800,11.40906689453125,-0.014093399047851562,0.027601242065429688,-0.02939322590827942
1760285894706066700,11.419066650390626,-0.035152435302734375,0.021453022956848145,-0.02039399743080139
1760285894716066800,11.42906689453125,-0.04654216766357422,0.019908428192138672,-0.026152580976486206
1760285894726066700,11.439066650390625,-0.04600334167480469,0.026233434677124023,-0.044779449701309204
1760285894736066800,11.44906689453125,-0.026472091674804688,0.03138577938079834,-0.06334856152534485
1760285894746066700,11.459066650390625,0.011910438537597656,0.03590214252471924,-0.08138841390609741
1760285894756066800,11.46906689453125,0.047631263732910156,0.039208054542541504,-0.08100607991218567
1760285894766066700,11.479066650390624,0.0641183853149414,0.04005622863769531,-0.07127094268798828
1760285894776066800,11.48906689453125,0.052231788635253906,0.0357053279876709,-0.06006231904029846
1760285894786066700,11.499066650390626,0.028711318969726562,0.02445375919342041,-0.03783103823661804
1760285894796066800,11.50906689453125,-0.3129539489746094,-0.016922712326049805,-0.003263235092163086
1760285894806066700,11.519066650390625,-0.32175731658935547,0.010058760643005371,0.04607841372489929
1760285894816066800,11.52906689453125,-0.28596973419189453,0.02317488193511963,0.03052389621734619
1760285894826066700,11.539066650390625,-0.3035907745361328,0.04544365406036377,-0.049459099769592285
1760285894836066800,11.54906689453125,-0.2733879089355469,0.0795358419418335,-0.08881485462188721
1760285894846066700,11.559066650390625,-0.23365306854248047,0.09489548206329346,-0.10176703333854675
1760285894856066800,11.56906689453125,-0.19145679473876953,0.08470511436462402,-0.09744375944137573
1760285894866066700,11.579066650390626,-0.1298046112060547,0.07061636447906494,-0.07606369256973267
1760285894876066800,11.58906689453125,-0.0701589584350586,0.04967606067657471,-0.04456821084022522
1760285894886066700,11.599066650390625,-0.024547576904296875,0.02854752540588379,-0.020667731761932373
1760285894896066800,11.60906689453125,0.0021696090698242188,0.010074615478515625,-0.01662948727607727
1760285894906066700,11.619066650390625,0.019422531127929688,0.005199313163757324,-0.024322152137756348
1760285894916066800,11.62906689453125,0.026964187622070312,0.0059975385665893555,-0.02774086594581604
1760285894926066700,11.639066650390625,0.03177452087402344,0.008603334426879883,-0.031230241060256958
1760285894936066800,11.64906689453125,0.050675392150878906,0.017729640007019043,-0.031071573495864868
1760285894946066700,11.659066650390624,0.05023384094238281,0.02112412452697754,-0.03077635169029236
1760285894956066800,11.66906689453125,0.11681556701660156,0.05587637424468994,-0.03967761993408203
1760285894966066700,11.679066650390626,0.14762306213378906,0.06800234317779541,-0.053496867418289185
1760285894976066800,11.68906689453125,0.15231800079345703,0.07095563411712646,-0.06835141777992249
1760285894986066700,11.699066650390625,0.13350868225097656,0.07777714729309082,-0.07127249240875244
1760285894996066800,11.70906689453125,0.10042953491210938,0.08385109901428223,-0.07194146513938904
1760285895006066700,11.719066650390625,0.06967830657958984,0.09276938438415527,-0.07521125674247742
1760285895016066800,11.72906689453125,0.050777435302734375,0.10020220279693604,-0.09044387936592102
1760285895026066700,11.739066650390624,0.048598289489746094,0.10551869869232178,-0.1056794822216034
1760285895036066800,11.74906689453125,0.060791969299316406,0.10129296779632568,-0.10150623321533203
1760285895046066700,11.759066650390626,0.08261585235595703,0.08711504936218262,-0.07327842712402344
1760285895056066800,11.76906689453125,0.09746742248535156,0.05206131935119629,-0.02887040376663208
1760285895066066700,11.779066650390625,0.10532188415527344,0.015485405921936035,0.005363047122955322
1760285895076066800,11.78906689453125,0.08935356140136719,-0.024553656578063965,0.01970571279525757
1760285895086066700,11.799066650390625,0.05675029754638672,-0.036958932876586914,0.011659771203994751
1760285895096066800,11.80906689453125,0.009809494018554688,-0.028074264526367188,-0.01351940631866455
1760285895106066700,11.819066650390624,-0.03240394592285156,-0.01632511615753174,-0.03880611062049866
1760285895116066800,11.82906689453125,-0.06286239624023438,-0.0025675296783447266,-0.053006529808044434
1760285895126066700,11.839066650390626,-0.07437419891357422,0.005445718765258789,-0.06269577145576477
1760285895136066800,11.84906689453125,-0.0741434097290039,0.007391810417175293,-0.062482625246047974
1760285895146066700,11.859066650390625,-0.0667734146118164,0.00912785530090332,-0.05004402995109558
1760285895156066800,11.86906689453125,-0.05212593078613281,-0.002026796340942383,-0.03872784972190857
1760285895166066700,11.879066650390625,-0.05167579650878906,-0.007048130035400391,-0.04625093936920166
1760285895176066800,11.88906689453125,-0.04144477844238281,-0.024860858917236328,-0.022602856159210205
1760285895186066700,11.899066650390624,-0.06917476654052734,-0.07277238368988037,0.02223283052444458
1760285895196066800,11.90906689453125,-0.1063995361328125,-0.06599617004394531,0.015051513910293579
1760285895206066700,11.919066650390626,-0.15331363677978516,-0.05152177810668945,-0.00783240795135498
1760285895216066800,11.92906689453125,-0.21009063720703125,-0.03534197807312012,-0.027302980422973633
1760285895226066700,11.939066650390625,-0.25766563415527344,-0.023870110511779785,-0.04502284526824951
1760285895236066800,11.94906689453125,-0.2744779586791992,-0.014649271965026855,-0.053049445152282715
1760285895246066700,11.959066650390625,-0.26523876190185547,-0.010243773460388184,-0.05454021692276001
1760285895256066800,11.96906689453125,-0.23948192596435547,-0.003640413284301758,-0.05603596568107605
1760285895266066700,11.979066650390624,-0.20177555084228516,0.005548954010009766,-0.06465160846710205
1760285895276066800,11.98906689453125,-0.17122268676757812,0.009621739387512207,-0.07383465766906738
1760285895286066700,11.999066650390626,-0.1502532958984375,0.023203730583190918,-0.08121350407600403
1760285895296066800,12.00906689453125,-0.1340322494506836,0.03162038326263428,-0.08665567636489868
1760285895306066700,12.019066650390625,-0.12010669708251953,0.039472222328186035,-0.08681556582450867
1760285895316066800,12.02906689453125,-0.10361862182617188,0.04656374454498291,-0.08030137419700623
1760285895326066700,12.039066650390625,-0.08217906951904297,0.04591977596282959,-0.07117843627929688
1760285895336066800,12.04906689453125,-0.053605079650878906,0.04317605495452881,-0.06473296880722046
1760285895346066700,12.059066650390625,-0.02511882781982422,0.038347840309143066,-0.05729219317436218
1760285895356066800,12.06906689453125,-0.003955841064453125,0.03396034240722656,-0.04983842372894287
1760285895366066700,12.079066650390626,0.014775276184082031,0.03179943561553955,-0.03945833444595337
1760285895376066800,12.08906689453125,0.02879047393798828,0.03153955936431885,-0.03860372304916382
1760285895386066700,12.099066650390625,0.040531158447265625,0.033080220222473145,-0.04618743062019348
1760285895396066800,12.10906689453125,0.05477428436279297,0.046022891998291016,-0.06251612305641174
1760285895406066700,12.119066650390625,0.0761880874633789,0.05417740345001221,-0.07444050908088684
1760285895416066800,12.12906689453125,0.10000038146972656,0.05981767177581787,-0.07476335763931274
1760285895426066700,12.139066650390625,0.10470962524414062,0.05275285243988037,-0.055121392011642456
1760285895436066800,12.14906689453125,0.09036636352539062,0.035022735595703125,-0.029891520738601685
1760285895446066700,12.159066650390624,0.06896495819091797,0.018643617630004883,-0.014930516481399536
1760285895456066800,12.16906689453125,0.04291343688964844,0.011036515235900879,-0.008841335773468018
1760285895466066700,12.179066650390626,0.024107933044433594,0.010484099388122559,-0.008535534143447876
1760285895476066800,12.18906689453125,0.021955490112304688,0.02029573917388916,-0.01771414279937744
1760285895486066700,12.199066650390625,-0.3203449249267578,-0.011916041374206543,-0.06346529722213745
1760285895496066800,12.20906689453125,-0.27986621856689453,0.03269636631011963,-0.0039018988609313965
1760285895506066700,12.219066650390625,-0.3028755187988281,0.03791701793670654,0.00980079174041748
1760285895516066800,12.22906689453125,-0.3884449005126953,0.0743175745010376,-0.04181700944900513
1760285895526066700,12.239066650390624,-0.3396339416503906,0.06966352462768555,-0.04752489924430847
1760285895536066800,12.24906689453125,-0.23987865447998047,0.04123497009277344,-0.014256447553634644
1760285895546066700,12.259066650390626,-0.12798595428466797,0.028758525848388672,-0.006398648023605347
1760285895556066800,12.26906689453125,-0.06827354431152344,0.03877866268157959,-0.04984593391418457
1760285895566066700,12.279066650390625,-0.060749053955078125,0.059310197830200195,-0.10876014828681946
1760285895576066800,12.28906689453125,-0.09370613098144531,0.08478248119354248,-0.14615681767463684
1760285895586066700,12.299066650390625,-0.13146591186523438,0.09596478939056396,-0.16691488027572632
1760285895596066800,12.30906689453125,-0.15023326873779297,0.08713316917419434,-0.15057876706123352
1760285895606066700,12.319066650390624,-0.1670379638671875,0.05963575839996338,-0.10184478759765625
1760285895616066800,12.32906689453125,-0.1674633026123047,0.02749192714691162,-0.04207780957221985
1760285895626066700,12.339066650390626,-0.16587257385253906,0.002864241600036621,0.002971082925796509
1760285895636066800,12.34906689453125,-0.14547443389892578,-0.0072939395904541016,0.018867969512939453
1760285895646066700,12.359066650390625,-0.10373210906982422,-0.0014252662658691406,0.0062649548053741455
