time,seconds_elapsed,z,y,x
1760285883521411600,0.23441162109375,0.0012217304902151227,-0.00366519158706069,-0.013439035043120384
1760285883531411500,0.244411376953125,-0.001832595793530345,-0.019547687843441963,-0.00733038317412138
1760285883541411600,0.25441162109375,-0.00366519158706069,-0.0403171069920063,-0.009773843921720982
1760285883551411500,0.264411376953125,-0.0024434609804302454,-0.054367005825042725,-0.018936822190880775
1760285883561411600,0.27441162109375,-0.0006108652451075613,-0.054367005825042725,-0.033597588539123535
1760285883571411500,0.284411376953125,0,-0.04337143152952194,-0.04886921867728233
1760285883581411600,0.29441162109375,0.0024434609804302454,-0.04092797264456749,-0.06291911751031876
1760285883591411500,0.304411376953125,0.00733038317412138,-0.045204028487205505,-0.08002334833145142
1760285883601411600,0.31441162109375,0.005497787147760391,-0.0403171069920063,-0.08491026610136032
1760285883611411500,0.324411376953125,0.006719517521560192,-0.031154127791523933,-0.07696902006864548
1760285883621411600,0.33441162109375,0.009773843921720982,-0.015271631069481373,-0.059864792972803116
1760285883631411700,0.34441162109375,0.009162978269159794,0.004886921960860491,-0.033597588539123535
1760285883641411600,0.35441162109375,0.006719517521560192,0.027488935738801956,-0.001832595793530345
1760285883651411700,0.36441162109375,0.00733038317412138,0.05497787147760391,0.02871066704392433
1760285883661411600,0.37441162109375,0.009162978269159794,0.08796459436416626,0.045204028487205505
1760285883671411700,0.38441162109375,0.009773843921720982,0.07696902006864548,0.028099801391363144
1760285883681411600,0.39441162109375,0.00855211354792118,0.045204028487205505,-0.006108652334660292
1760285883691411700,0.40441162109375,0.003054326167330146,0.010995574295520782,-0.039095375686883926
1760285883701411600,0.41441162109375,-0.0012217304902151227,-0.018325956538319588,-0.06414084881544113
1760285883711411700,0.42441162109375,-0.00366519158706069,-0.03787364438176155,-0.08185594528913498
1760285883721411600,0.43441162109375,-0.00366519158706069,-0.039706241339445114,-0.07147123664617538
1760285883731411700,0.44441162109375,0.001832595793530345,-0.02687807008624077,-0.04948008432984352
1760285883741411600,0.45441162109375,0.006719517521560192,-0.01771509274840355,-0.025656340643763542
1760285883751411700,0.46441162109375,0.004886921960860491,-0.01160643994808197,-0.010995574295520782
1760285883761411600,0.47441162109375,-0.0012217304902151227,-0.010995574295520782,-0.006719517521560192
1760285883771411700,0.48441162109375,-0.00733038317412138,-0.012828170321881771,-0.00733038317412138
1760285883781411600,0.49441162109375,-0.006719517521560192,-0.012828170321881771,-0.010995574295520782
1760285883791411700,0.50441162109375,0.0012217304902151227,-0.01038470957428217,-0.01710422709584236
1760285883801411600,0.51441162109375,-0.001832595793530345,-0.006719517521560192,-0.025045474991202354
1760285883811411700,0.52441162109375,-0.009773843921720982,-0.00855211354792118,-0.02932153269648552
1760285883821411600,0.53441162109375,-0.015271631069481373,-0.006108652334660292,-0.027488935738801956
1760285883831411700,0.54441162109375,-0.019547687843441963,0.004886921960860491,-0.02382374368607998
1760285883841411600,0.55441162109375,-0.021991148591041565,0.00855211354792118,-0.022602014243602753
1760285883851411700,0.56441162109375,-0.01710422709584236,-0.00427605677396059,-0.02871066704392433
1760285883861411600,0.57441162109375,-0.01038470957428217,-0.02321287989616394,-0.0403171069920063
1760285883871411700,0.58441162109375,-0.009773843921720982,-0.018325956538319588,-0.04337143152952194
1760285883881411600,0.59441162109375,-0.00855211354792118,-0.010995574295520782,-0.04703662544488907
1760285883891411700,0.60441162109375,-0.004886921960860491,-0.003054326167330146,-0.05009094998240471
1760285883901411600,0.61441162109375,-0.0012217304902151227,-0.00427605677396059,-0.04764748737215996
1760285883911411700,0.62441162109375,0.0006108652451075613,-0.0024434609804302454,-0.033597588539123535
1760285883921411600,0.63441162109375,-0.001832595793530345,0.005497787147760391,-0.012217304669320583
1760285883931411700,0.64441162109375,-0.00855211354792118,0.016493361443281174,0.005497787147760391
1760285883941411600,0.65441162109375,-0.006719517521560192,0.02015855349600315,0.007941247895359993
1760285883951411700,0.66441162109375,-0.0024434609804302454,0.029932396486401558,0.0012217304902151227
1760285883961411600,0.67441162109375,0.0024434609804302454,0.036651913076639175,-0.00427605677396059
1760285883971411700,0.68441162109375,0.004886921960860491,0.03237585723400116,-0.004886921960860491
1760285883981411600,0.69441162109375,0.004886921960860491,0.02871066704392433,0
1760285883991411700,0.70441162109375,0.0024434609804302454,0.030543262138962746,-0.003054326167330146
1760285884001411600,0.71441162109375,-0.0006108652451075613,0.015882495790719986,-0.013439035043120384
1760285884011411700,0.72441162109375,-0.006719517521560192,0.012217304669320583,-0.022602014243602753
1760285884021411600,0.73441162109375,-0.009162978269159794,0.03176499158143997,-0.031154127791523933
1760285884031411700,0.74441162109375,-0.004886921960860491,0.04764748737215996,-0.0403171069920063
1760285884041411600,0.75441162109375,-0.00366519158706069,0.06291911751031876,-0.05192354694008827
1760285884051411700,0.76441162109375,-0.00733038317412138,0.08002334833145142,-0.06169738993048668
1760285884061411600,0.77441162109375,-0.01038470957428217,0.08368854224681854,-0.05803219974040985
1760285884071411700,0.78441162109375,-0.021991148591041565,0.06169738993048668,-0.03176499158143997
1760285884081411600,0.79441162109375,-0.03787364438176155,0.04764748737215996,-0.0012217304902151227
1760285884091411700,0.80441162109375,-0.04886921867728233,0.045204028487205505,0.02626720629632473
1760285884101411600,0.81441162109375,-0.05009094998240471,0.05375614017248154,0.05375614017248154
1760285884111411700,0.82441162109375,-0.05253441259264946,0.09712757170200348,0.06169738993048668
1760285884121411600,0.83441162109375,-0.022602014243602753,0.4746423065662384,-0.18936823308467865
1760285884131411700,0.84441162109375,0.0012217304902151227,0.34758231043815613,-0.3188716471195221
1760285884141411600,0.85441162109375,-0.0006108652451075613,-0.02687807008624077,-0.2620611786842346
1760285884151411700,0.86441162109375,0.028099801391363144,0.05375614017248154,-0.17104226350784302
1760285884161411600,0.87441162109375,0.07513642311096191,0.16554448008537292,-0.09407325088977814
1760285884171411700,0.88441162109375,0.10323622822761536,0.18387043476104736,-0.036651913076639175
1760285884181411600,0.89441162109375,0.10873401165008545,0.20525072515010834,-0.013439035043120384
1760285884191411700,0.90441162109375,0.09468411654233932,0.24373523890972137,-0.029932396486401558
1760285884201411600,0.91441162109375,0.0757472887635231,0.28099802136421204,-0.09040805697441101
1760285884211411700,0.92441162109375,0.07635815441608429,0.35246923565864563,-0.2632829248905182
1760285884221411600,0.93441162109375,0.08429940044879913,0.36224308609962463,-0.37629300355911255
1760285884231411700,0.94441162109375,0.09651670604944229,0.3585779070854187,-0.4642575979232788
1760285884241411600,0.95441162109375,0.10567969083786011,0.34574973583221436,-0.49235737323760986
1760285884251411700,0.96441162109375,0.1258382350206375,0.30604347586631775,-0.4434881806373596
1760285884261411600,0.97441162109375,0.15882496535778046,0.2272418737411499,-0.3628539443016052
1760285884271411700,0.98441162109375,0.19853121042251587,0.1814269721508026,-0.2626720666885376
1760285884281411600,0.99441162109375,0.23457226157188416,0.1569923609495163,-0.12767083942890167
1760285884291411700,1.00441162109375,0.22540926933288574,0.12828169763088226,-0.06169738993048668
1760285884301411600,1.01441162109375,0.16432274878025055,0.013439035043120384,-0.06780604273080826
1760285884311411700,1.02441162109375,0.10262536257505417,0.04092797264456749,-0.09162978827953339
1760285884321411600,1.03441162109375,0.036651913076639175,0.060475658625364304,-0.1007927656173706
1760285884331411700,1.04441162109375,-0.02076941914856434,0.025656340643763542,-0.09651670604944229
1760285884341411600,1.05441162109375,-0.07513642311096191,0.028099801391363144,-0.06902777403593063
1760285884351411700,1.06441162109375,-0.09529497474431992,0.045204028487205505,-0.04153883829712868
1760285884361411600,1.07441162109375,-0.11301007121801376,0.0507018156349659,-0.013439035043120384
1760285884371411700,1.08441162109375,-0.12217304855585098,0.05619960278272629,0.010995574295520782
1760285884381411600,1.09441162109375,-0.10995574295520782,0.06352998316287994,0.021380282938480377
1760285884391411700,1.10441162109375,-0.08185594528913498,0.06902777403593063,0.012217304669320583
1760285884401411600,1.11441162109375,-0.048258353024721146,0.06902777403593063,-0.006108652334660292
1760285884411411200,1.1244111328125,-0.01710422709584236,0.06291911751031876,-0.04337143152952194
1760285884421411300,1.134411376953125,-0.01160643994808197,0.06230825558304787,-0.06536258012056351
1760285884431411200,1.1444111328125,-0.019547687843441963,0.07635815441608429,-0.0806342139840126
1760285884441411300,1.154411376953125,-0.03420845419168472,0.08002334833145142,-0.08674286305904388
1760285884451411200,1.1644111328125,-0.05253441259264946,0.07941248267889023,-0.08491026610136032
1760285884461411300,1.174411376953125,-0.06841690838336945,0.07757988572120667,-0.07696902006864548
1760285884471411200,1.1844111328125,-0.08124507963657379,0.02015855349600315,-0.04092797264456749
1760285884481411300,1.194411376953125,-0.08552113175392151,-0.045204028487205505,0.05742133408784866
1760285884491411200,1.2044111328125,-0.07147123664617538,-0.022602014243602753,0.09773843735456467
1760285884501411300,1.214411376953125,-0.04948008432984352,-0.02076941914856434,0.11728613078594208
1760285884511411200,1.2244111328125,-0.031154127791523933,-0.01038470957428217,0.11056660860776901
1760285884521411300,1.234411376953125,-0.02321287989616394,0.015882495790719986,0.08429940044879913
1760285884531411200,1.2444111328125,-0.02076941914856434,0.02321287989616394,0.04642575979232788
1760285884541411300,1.254411376953125,-0.018325956538319588,0.006108652334660292,0.006719517521560192
1760285884551411200,1.2644111328125,-0.006719517521560192,-0.033597588539123535,-0.04948008432984352
1760285884561411300,1.274411376953125,0.0006108652451075613,-0.05192354694008827,-0.0757472887635231
1760285884571411200,1.2844111328125,0.004886921960860491,-0.05375614017248154,-0.09040805697441101
1760285884581411300,1.294411376953125,0.00427605677396059,-0.054367005825042725,-0.08735372871160507
1760285884591411200,1.3044111328125,-0.0024434609804302454,-0.04703662544488907,-0.060475658625364304
1760285884601411300,1.314411376953125,-0.004886921960860491,-0.036041051149368286,-0.02076941914856434
1760285884611411200,1.3244111328125,0,-0.015882495790719986,0.018936822190880775
1760285884621411300,1.334411376953125,0.006108652334660292,0.022602014243602753,0.051312681287527084
1760285884631411200,1.3444111328125,0.00855211354792118,0.04153883829712868,0.045204028487205505
1760285884641411300,1.354411376953125,0.012217304669320583,0.04886921867728233,0.025045474991202354
1760285884651411200,1.3644111328125,0.018936822190880775,0.04703662544488907,-0.001832595793530345
1760285884661411300,1.374411376953125,0.028099801391363144,0.04642575979232788,-0.03420845419168472
1760285884671411200,1.3844111328125,0.036651913076639175,0.03787364438176155,-0.059864792972803116
1760285884681411300,1.394411376953125,0.04581489413976669,0.01771509274840355,-0.07024950534105301
1760285884691411200,1.4044111328125,0.04886921867728233,-0.022602014243602753,-0.039706241339445114
1760285884701411300,1.414411376953125,0.033597588539123535,-0.015882495790719986,-0.005497787147760391
1760285884711411700,1.42441162109375,0.024434609338641167,0,0.02015855349600315
1760285884721411600,1.43441162109375,0.02321287989616394,0.019547687843441963,0.03237585723400116
1760285884731411700,1.44441162109375,0.02871066704392433,0.03176499158143997,0.03298672288656235
1760285884741412000,1.454412109375,0.03481931984424591,0.030543262138962746,0.025656340643763542
1760285884751412200,1.464412109375,0.039706241339445114,0.019547687843441963,0.014049900695681572
1760285884761412000,1.474412109375,0.042760565876960754,-0.016493361443281174,-0.009162978269159794
1760285884771412200,1.484412109375,0.04459316283464432,-0.0354301854968071,-0.024434609338641167
1760285884781412000,1.494412109375,0.045204028487205505,-0.033597588539123535,-0.0354301854968071
1760285884791412200,1.504412109375,0.04459316283464432,-0.013439035043120384,-0.04337143152952194
1760285884801412000,1.514412109375,0.04398229718208313,0.009773843921720982,-0.04703662544488907
1760285884811412200,1.524412109375,0.03848451003432274,0.003054326167330146,-0.048258353024721146
1760285884821412000,1.534412109375,0.02382374368607998,-0.02015855349600315,-0.04581489413976669
1760285884831412200,1.544412109375,-0.006719517521560192,-0.036651913076639175,-0.03237585723400116
1760285884841412000,1.554412109375,-0.02687807008624077,-0.03787364438176155,-0.016493361443281174
1760285884851412200,1.564412109375,-0.039095375686883926,-0.02321287989616394,0.0012217304902151227
1760285884861412000,1.574412109375,-0.04092797264456749,0.00733038317412138,0.012217304669320583
1760285884871412200,1.584412109375,-0.036651913076639175,0.03848451003432274,0.006719517521560192
1760285884881412000,1.594412109375,-0.021991148591041565,0.042760565876960754,-0.01038470957428217
1760285884891412200,1.604412109375,-0.007941247895359993,0.019547687843441963,-0.030543262138962746
1760285884901412000,1.614412109375,0.005497787147760391,-0.019547687843441963,-0.05803219974040985
1760285884911412200,1.624412109375,0.00855211354792118,-0.02871066704392433,-0.06902777403593063
1760285884921412000,1.634412109375,0.009773843921720982,-0.021991148591041565,-0.07452555745840073
1760285884931412200,1.644412109375,0.009773843921720982,-0.015882495790719986,-0.07696902006864548
1760285884941412000,1.654412109375,0.00855211354792118,-0.00855211354792118,-0.07391469180583954
1760285884951412200,1.664412109375,0.007941247895359993,-0.0012217304902151227,-0.06475171446800232
1760285884966067200,1.679067138671875,0.00733038317412138,0.005497787147760391,-0.04581489413976669
1760285884976067300,1.6890673828125,0.009162978269159794,0.019547687843441963,-0.02076941914856434
1760285884986067200,1.699067138671875,0.009773843921720982,0.025045474991202354,-0.010995574295520782
1760285884996067300,1.7090673828125,0.004886921960860491,0.021991148591041565,-0.01038470957428217
1760285885006067200,1.719067138671875,-0.0012217304902151227,0.00733038317412138,-0.015271631069481373
1760285885016067300,1.7290673828125,0,-0.005497787147760391,-0.02687807008624077
1760285885026067200,1.739067138671875,0.00427605677396059,-0.018936822190880775,-0.0354301854968071
1760285885036067300,1.7490673828125,0.010995574295520782,-0.02871066704392433,-0.02687807008624077
1760285885046066700,1.759066650390625,0.02076941914856434,-0.02687807008624077,-0.016493361443281174
1760285885056066800,1.76906689453125,0.028099801391363144,-0.02076941914856434,-0.00855211354792118
1760285885066066400,1.77906640625,0.029932396486401558,-0.016493361443281174,-0.0024434609804302454
1760285885076066300,1.78906640625,0.025045474991202354,-0.013439035043120384,-0.0006108652451075613
1760285885086066400,1.79906640625,0.01771509274840355,-0.006719517521560192,0.006108652334660292
1760285885096066300,1.80906640625,0.01160643994808197,-0.00855211354792118,0.015882495790719986
1760285885106066400,1.81906640625,0.004886921960860491,-0.007941247895359993,0.02626720629632473
1760285885116066300,1.82906640625,0,-0.00366519158706069,0.02932153269648552
1760285885126066400,1.83906640625,-0.005497787147760391,0.001832595793530345,0.027488935738801956
1760285885136066600,1.849066650390625,-0.00733038317412138,0.0006108652451075613,0.018325956538319588
1760285885146066400,1.85906640625,-0.009773843921720982,-0.00427605677396059,0.010995574295520782
1760285885156066600,1.869066650390625,-0.00733038317412138,0,0.006108652334660292
1760285885166066400,1.87906640625,0.003054326167330146,0.010995574295520782,-0.003054326167330146
1760285885176066300,1.88906640625,0.024434609338641167,0.00427605677396059,-0.014049900695681572
1760285885186066400,1.89906640625,0.029932396486401558,-0.01160643994808197,-0.02321287989616394
1760285885196066300,1.90906640625,0.02871066704392433,-0.028099801391363144,-0.025656340643763542
1760285885206066400,1.91906640625,0.021991148591041565,-0.036041051149368286,-0.024434609338641167
1760285885216066300,1.92906640625,0.01710422709584236,-0.03420845419168472,-0.025045474991202354
1760285885226066400,1.93906640625,0.019547687843441963,-0.029932396486401558,-0.030543262138962746
1760285885236066300,1.94906640625,0.021991148591041565,-0.015271631069481373,-0.03787364438176155
1760285885246066400,1.95906640625,0.02321287989616394,0.003054326167330146,-0.048258353024721146
1760285885256066300,1.96906640625,0.015271631069481373,0.00855211354792118,-0.04214970022439957
1760285885266066400,1.97906640625,0,0.006719517521560192,-0.03176499158143997
1760285885276066300,1.98906640625,-0.01771509274840355,0.006108652334660292,-0.022602014243602753
1760285885286066400,1.99906640625,-0.0354301854968071,0.005497787147760391,-0.018325956538319588
1760285885296066300,2.00906640625,-0.04703662544488907,0.00366519158706069,-0.01710422709584236
1760285885306066400,2.01906640625,-0.051312681287527084,0.016493361443281174,-0.014049900695681572
1760285885316066300,2.02906640625,-0.05742133408784866,0.02687807008624077,-0.012217304669320583
1760285885326066400,2.03906640625,-0.06414084881544113,0.021991148591041565,-0.012828170321881771
1760285885336066300,2.04906640625,-0.07330382615327835,0.02015855349600315,-0.010995574295520782
1760285885346066400,2.05906640625,-0.07819075137376785,0.02076941914856434,-0.006108652334660292
1760285885356066300,2.06906640625,-0.07330382615327835,0.018936822190880775,-0.001832595793530345
1760285885366066700,2.079066650390625,-0.05619960278272629,0.009773843921720982,0.00427605677396059
1760285885376066800,2.08906689453125,-0.03298672288656235,0.00427605677396059,0.010995574295520782
1760285885386067000,2.09906689453125,0,0.00427605677396059,0.01710422709584236
1760285885396066800,2.10906689453125,0.009162978269159794,0.006719517521560192,0.018936822190880775
1760285885406067000,2.11906689453125,0.009162978269159794,0.005497787147760391,0.015271631069481373
1760285885416066800,2.12906689453125,0.00733038317412138,0.00366519158706069,0.006719517521560192
1760285885426066700,2.139066650390625,0.004886921960860491,0.005497787147760391,0.0024434609804302454
1760285885436066800,2.14906689453125,0.004886921960860491,0.001832595793530345,0.005497787147760391
1760285885456066800,2.16906689453125,0.00366519158706069,-0.02076941914856434,0.030543262138962746
1760285885466066700,2.179066650390625,0.001832595793530345,-0.019547687843441963,0.031154127791523933
1760285885476066800,2.18906689453125,0,-0.006719517521560192,0.02687807008624077
1760285885486066700,2.199066650390625,-0.0012217304902151227,0.01038470957428217,0.024434609338641167
1760285885496066800,2.20906689453125,-0.004886921960860491,0.021991148591041565,0.025045474991202354
1760285885506066700,2.219066650390625,-0.009773843921720982,0.02321287989616394,0.025045474991202354
1760285885516066800,2.22906689453125,-0.012828170321881771,0.02076941914856434,0.024434609338641167
1760285885526066700,2.239066650390625,-0.012828170321881771,0.01710422709584236,0.01160643994808197
1760285885536066800,2.24906689453125,-0.012828170321881771,0.028099801391363144,-0.0012217304902151227
1760285885546066700,2.259066650390625,-0.015882495790719986,0.039706241339445114,-0.012828170321881771
1760285885556066800,2.26906689453125,-0.015271631069481373,0.04948008432984352,-0.01710422709584236
1760285885566066700,2.279066650390625,-0.01710422709584236,0.05497787147760391,-0.015271631069481373
1760285885586066700,2.299066650390625,-0.02626720629632473,0.042760565876960754,-0.0012217304902151227
1760285885596066800,2.30906689453125,-0.031154127791523933,0.021380282938480377,0.013439035043120384
1760285885606066700,2.319066650390625,-0.027488935738801956,0.00427605677396059,0.02015855349600315
1760285885616066800,2.32906689453125,-0.015882495790719986,0.006108652334660292,0.021991148591041565
1760285885626067000,2.33906689453125,-0.00427605677396059,0.015271631069481373,0.014049900695681572
1760285885636066800,2.34906689453125,0.003054326167330146,0.016493361443281174,0.007941247895359993
1760285885646067000,2.35906689453125,0.0024434609804302454,0.016493361443281174,0.00427605677396059
1760285885656066800,2.36906689453125,-0.004886921960860491,0.01771509274840355,0.001832595793530345
1760285885666067000,2.37906689453125,-0.013439035043120384,0.01710422709584236,0.006719517521560192
1760285885676066800,2.38906689453125,-0.01710422709584236,0.015271631069481373,0.012828170321881771
1760285885686066700,2.399066650390625,-0.015271631069481373,0.021380282938480377,0.018325956538319588
1760285885696066800,2.40906689453125,-0.00733038317412138,0.03420845419168472,0.021991148591041565
1760285885706066700,2.419066650390625,0,0.04886921867728233,0.022602014243602753
1760285885716066800,2.42906689453125,0.006719517521560192,0.05497787147760391,0.02321287989616394
1760285885726066700,2.439066650390625,0.012828170321881771,0.03787364438176155,0.03176499158143997
1760285885736066800,2.44906689453125,0.012828170321881771,0.02321287989616394,0.04337143152952194
1760285885746066700,2.459066650390625,0.01038470957428217,0.014049900695681572,0.054367005825042725
1760285885756066800,2.46906689453125,0.004886921960860491,0.006719517521560192,0.05803219974040985
1760285885766066700,2.479066650390625,0.0006108652451075613,0.001832595793530345,0.056810468435287476
1760285885776066800,2.48906689453125,0.001832595793530345,0,0.048258353024721146
1760285885786066700,2.499066650390625,0.01038470957428217,0.0012217304902151227,0.03481931984424591
1760285885796066800,2.50906689453125,0.02687807008624077,-0.010995574295520782,0.022602014243602753
1760285885806066700,2.519066650390625,0.056810468435287476,0.10567969083786011,-0.07269296050071716
1760285885816066800,2.52906689453125,0.08796459436416626,0.1319468915462494,-0.18875735998153687
1760285885826066700,2.539066650390625,0.06536258012056351,0.027488935738801956,-0.17409659922122955
1760285885836066800,2.54906689453125,0.04398229718208313,0.0757472887635231,-0.18387043476104736
1760285885846066700,2.559066650390625,0.015271631069481373,0.08735372871160507,-0.16004669666290283
1760285885856066800,2.56906689453125,-0.00733038317412138,0.08368854224681854,-0.12950342893600464
1760285885866066700,2.579066650390625,-0.024434609338641167,0.11850785464048386,-0.060475658625364304
1760285885876066800,2.58906689453125,-0.022602014243602753,0.13072516024112701,-0.015882495790719986
1760285885886067000,2.59906689453125,-0.013439035043120384,0.11178833991289139,0.015882495790719986
1760285885896066800,2.60906689453125,-0.001832595793530345,0.08002334833145142,0.02626720629632473
1760285885906067000,2.61906689453125,0.01038470957428217,0.05009094998240471,0.021991148591041565
1760285885916066800,2.62906689453125,0.019547687843441963,0.031154127791523933,0.007941247895359993
1760285885926066700,2.639066650390625,0.021991148591041565,0.024434609338641167,-0.009162978269159794
1760285885936066800,2.64906689453125,0.005497787147760391,0.021991148591041565,-0.04703662544488907
1760285885946066700,2.659066650390625,-0.00855211354792118,0.013439035043120384,-0.06658431142568588
1760285885956066800,2.66906689453125,-0.018936822190880775,0.009773843921720982,-0.0757472887635231
1760285885966066700,2.679066650390625,-0.019547687843441963,0.01160643994808197,-0.07452555745840073
1760285885976066800,2.68906689453125,-0.014049900695681572,0.01466076634824276,-0.0708603709936142
1760285885986066700,2.699066650390625,-0.00733038317412138,0.012828170321881771,-0.0659734457731247
1760285885996066800,2.70906689453125,0.00427605677396059,0.012828170321881771,-0.05925392732024193
1760285886006066700,2.719066650390625,0.021380282938480377,-0.003054326167330146,-0.036041051149368286
1760285886016066800,2.72906689453125,0.02626720629632473,-0.006719517521560192,-0.02382374368607998
1760285886026066700,2.739066650390625,0.028099801391363144,-0.0012217304902151227,-0.019547687843441963
1760285886036066800,2.74906689453125,0.02687807008624077,0.004886921960860491,-0.021991148591041565
1760285886046066700,2.759066650390625,0.025656340643763542,0.009162978269159794,-0.025656340643763542
1760285886056066800,2.76906689453125,0.02382374368607998,0.00733038317412138,-0.03237585723400116
1760285886066066700,2.779066650390625,0.021380282938480377,0.0006108652451075613,-0.04214970022439957
1760285886076066800,2.78906689453125,0.016493361443281174,-0.02626720629632473,-0.045204028487205505
1760285886086066700,2.799066650390625,0.012828170321881771,-0.033597588539123535,-0.04764748737215996
1760285886096066800,2.80906689453125,0.01038470957428217,-0.033597588539123535,-0.04703662544488907
1760285886116066800,2.82906689453125,0.015882495790719986,-0.014049900695681572,-0.02687807008624077
1760285886126067000,2.83906689453125,0.02076941914856434,-0.007941247895359993,-0.015882495790719986
1760285886136066800,2.84906689453125,0.021380282938480377,-0.0024434609804302454,-0.01160643994808197
1760285886146067000,2.85906689453125,0.006719517521560192,-0.02932153269648552,-0.03787364438176155
1760285886156066800,2.86906689453125,-0.01771509274840355,-0.06108652427792549,-0.0659734457731247
1760285886166067000,2.87906689453125,-0.04092797264456749,-0.0910189226269722,-0.08246681094169617
1760285886176066800,2.88906689453125,-0.05375614017248154,-0.1062905490398407,-0.08429940044879913
1760285886186067000,2.89906689453125,-0.056810468435287476,-0.10323622822761536,-0.07269296050071716
1760285886196066800,2.90906689453125,-0.056810468435287476,-0.09407325088977814,-0.05864306539297104
1760285886206067000,2.91906689453125,-0.059864792972803116,-0.08124507963657379,-0.0507018156349659
1760285886216066800,2.92906689453125,-0.06963863968849182,-0.07391469180583954,-0.04581489413976669
1760285886226067000,2.93906689453125,-0.06963863968849182,-0.0708603709936142,-0.04337143152952194
1760285886236066800,2.94906689453125,-0.06230825558304787,-0.07330382615327835,-0.04764748737215996
1760285886246067000,2.95906689453125,-0.05497787147760391,-0.08307767659425735,-0.06536258012056351
1760285886256066800,2.96906689453125,-0.04703662544488907,-0.08857546001672745,-0.09773843735456467
1760285886266067000,2.97906689453125,-0.039706241339445114,-0.009162978269159794,-0.10690141469240189
1760285886276066800,2.98906689453125,-0.025045474991202354,0.07024950534105301,-0.09651670604944229
1760285886286067000,2.99906689453125,-0.010995574295520782,0.0708603709936142,-0.04764748737215996
1760285886296066800,3.00906689453125,-0.022602014243602753,0.00366519158706069,-0.01710422709584236
1760285886306067000,3.01906689453125,-0.04764748737215996,-0.09468411654233932,0.0024434609804302454
1760285886316066800,3.02906689453125,-0.07635815441608429,-0.14782938361167908,0.01038470957428217
1760285886326067000,3.03906689453125,-0.08979719132184982,-0.1667662113904953,-0.01160643994808197
1760285886336066800,3.04906689453125,-0.09346238523721695,-0.12095131725072861,-0.04459316283464432
1760285886346067000,3.05906689453125,-0.03298672288656235,0.2730567753314972,-0.01710422709584236
1760285886356066800,3.06906689453125,0.11545353382825851,0.3182607889175415,0.013439035043120384
1760285886366067000,3.07906689453125,0.20097467303276062,0.23090706765651703,0.04153883829712868
1760285886376066800,3.08906689453125,0.20097467303276062,0.13988813757896423,0.056810468435287476
1760285886386067000,3.09906689453125,0.16493362188339233,0.06352998316287994,0.04886921867728233
1760285886396066800,3.10906689453125,0.13316862285137177,-0.00366519158706069,0.01160643994808197
1760285886406067000,3.11906689453125,0.11178833991289139,-0.02321287989616394,-0.05314527451992035
1760285886416066800,3.12906689453125,0.09040805697441101,0.00366519158706069,-0.1368338167667389
1760285886426066700,3.139066650390625,0.07757988572120667,0.01466076634824276,-0.1508837193250656
1760285886436066800,3.14906689453125,0.07208210229873657,0.012828170321881771,-0.1270599663257599
1760285886446066700,3.159066650390625,0.06902777403593063,0.00733038317412138,-0.0806342139840126
1760285886466066700,3.179066650390625,0.07147123664617538,0.005497787147760391,0.01710422709584236
1760285886486066700,3.199066650390625,0.08124507963657379,0.02015855349600315,0.06536258012056351
1760285886496066800,3.20906689453125,0.08002334833145142,0.025045474991202354,0.05742133408784866
1760285886506066700,3.219066650390625,0.09529497474431992,0.0354301854968071,0.02932153269648552
1760285886516066800,3.22906689453125,0.12278391420841217,0.04642575979232788,0
1760285886526066700,3.239066650390625,0.1319468915462494,0.04703662544488907,-0.018936822190880775
1760285886536066800,3.24906689453125,0.12095131725072861,0.01771509274840355,-0.03420845419168472
1760285886546066700,3.259066650390625,0.11484266817569733,-0.003054326167330146,-0.0403171069920063
1760285886556066800,3.26906689453125,0.11056660860776901,-0.042760565876960754,-0.02932153269648552
1760285886566066700,3.279066650390625,0.0861319974064827,-0.09468411654233932,-0.025656340643763542
1760285886576066800,3.28906689453125,0.05314527451992035,-0.17470745742321014,-0.04153883829712868
1760285886586066700,3.299066650390625,0.02687807008624077,-0.20341812074184418,-0.04092797264456749
1760285886596066800,3.30906689453125,0.015271631069481373,-0.17409659922122955,-0.01466076634824276
1760285886606066700,3.319066650390625,0.010995574295520782,-0.13072516024112701,0.018325956538319588
1760285886616066800,3.32906689453125,0.012217304669320583,-0.08124507963657379,0.04764748737215996
1760285886626067000,3.33906689453125,0.022602014243602753,-0.027488935738801956,0.07452555745840073
1760285886636066800,3.34906689453125,0.031154127791523933,-0.021380282938480377,0.08735372871160507
1760285886646067000,3.35906689453125,0.039706241339445114,-0.02626720629632473,0.08735372871160507
1760285886656066800,3.36906689453125,0.04214970022439957,-0.0403171069920063,0.07880161702632904
1760285886666067000,3.37906689453125,0.04153883829712868,-0.048258353024721146,0.05497787147760391
1760285886676066800,3.38906689453125,0.036041051149368286,-0.04398229718208313,0.029932396486401558
1760285886686066700,3.399066650390625,0.025656340643763542,-0.031154127791523933,0.00855211354792118
1760285886696066800,3.40906689453125,0.007941247895359993,-0.01160643994808197,-0.010995574295520782
1760285886706066700,3.419066650390625,-0.004886921960860491,-0.00366519158706069,-0.016493361443281174
1760285886716066800,3.42906689453125,-0.012828170321881771,-0.0006108652451075613,-0.015882495790719986
1760285886726066700,3.439066650390625,-0.016493361443281174,-0.004886921960860491,-0.007941247895359993
1760285886736066800,3.44906689453125,-0.013439035043120384,-0.006108652334660292,0
1760285886746066700,3.459066650390625,-0.0012217304902151227,0,0.004886921960860491
1760285886756066800,3.46906689453125,0.01466076634824276,0.006108652334660292,0.005497787147760391
1760285886766066700,3.479066650390625,0.027488935738801956,0.00855211354792118,-0.005497787147760391
1760285886776066800,3.48906689453125,0.02626720629632473,0.012828170321881771,-0.021991148591041565
1760285886786066700,3.499066650390625,0.01771509274840355,0.01710422709584236,-0.04214970022439957
1760285886796066800,3.50906689453125,0.004886921960860491,0.01710422709584236,-0.059864792972803116
1760285886806066700,3.519066650390625,-0.005497787147760391,0.013439035043120384,-0.0708603709936142
1760285886816066800,3.52906689453125,-0.01038470957428217,0.012828170321881771,-0.07208210229873657
1760285886826066700,3.539066650390625,-0.01160643994808197,0.012828170321881771,-0.06291911751031876
1760285886836066800,3.54906689453125,-0.00855211354792118,0.019547687843441963,-0.036651913076639175
1760285886846066700,3.559066650390625,-0.001832595793530345,0.027488935738801956,-0.021991148591041565
1760285886856066800,3.56906689453125,0.004886921960860491,0.029932396486401558,-0.016493361443281174
1760285886866066700,3.579066650390625,0.009773843921720982,0.024434609338641167,-0.018325956538319588
1760285886876066800,3.58906689453125,0.010995574295520782,0.010995574295520782,-0.029932396486401558
1760285886886067000,3.59906689453125,0.006108652334660292,-0.00366519158706069,-0.04153883829712868
1760285886896066800,3.60906689453125,-0.0006108652451075613,-0.01160643994808197,-0.05253441259264946
1760285886906067000,3.61906689453125,-0.010995574295520782,-0.006719517521560192,-0.05864306539297104
1760285886916066800,3.62906689453125,-0.012828170321881771,0,-0.05375614017248154
1760285886926066700,3.639066650390625,-0.015882495790719986,0.004886921960860491,-0.04214970022439957
1760285886936066800,3.64906689453125,-0.015271631069481373,0.00427605677396059,-0.02871066704392433
1760285886946066700,3.659066650390625,-0.012828170321881771,-0.009773843921720982,-0.01466076634824276
1760285886956066800,3.66906689453125,-0.012828170321881771,-0.022602014243602753,-0.001832595793530345
1760285886966066700,3.679066650390625,-0.01038470957428217,-0.018325956538319588,0.009162978269159794
1760285886976066800,3.68906689453125,-0.007941247895359993,0.0006108652451075613,0.02321287989616394
1760285886986066700,3.699066650390625,-0.009162978269159794,0.001832595793530345,0.030543262138962746
1760285886996066800,3.70906689453125,-0.010995574295520782,-0.004886921960860491,0.03176499158143997
1760285887006066700,3.719066650390625,-0.01160643994808197,-0.013439035043120384,0.028099801391363144
1760285887016066800,3.72906689453125,-0.009162978269159794,-0.012217304669320583,0.021991148591041565
1760285887026066700,3.739066650390625,-0.003054326167330146,-0.003054326167330146,0.014049900695681572
1760285887036066800,3.74906689453125,0.009162978269159794,0.004886921960860491,-0.003054326167330146
1760285887046066700,3.759066650390625,0.01160643994808197,0.006108652334660292,-0.010995574295520782
1760285887056066800,3.76906689453125,0.01038470957428217,-0.0024434609804302454,-0.009773843921720982
1760285887066066700,3.779066650390625,0.0012217304902151227,-0.01710422709584236,-0.0024434609804302454
1760285887076066800,3.78906689453125,-0.005497787147760391,-0.021991148591041565,0.00427605677396059
1760285887086066700,3.799066650390625,-0.006108652334660292,-0.021991148591041565,0.009162978269159794
1760285887096066800,3.80906689453125,-0.0006108652451075613,-0.02076941914856434,0.013439035043120384
1760285887106066700,3.819066650390625,0.010995574295520782,-0.014049900695681572,0.01160643994808197
1760285887116066800,3.82906689453125,0.015882495790719986,-0.00733038317412138,0.006719517521560192
1760285887126067000,3.83906689453125,0.015271631069481373,0.0012217304902151227,0.0012217304902151227
1760285887136066800,3.84906689453125,0.012217304669320583,0.009773843921720982,-0.004886921960860491
1760285887146067000,3.85906689453125,0.006108652334660292,0.015271631069481373,-0.01038470957428217
1760285887156066800,3.86906689453125,0.00366519158706069,0.01038470957428217,-0.015882495790719986
1760285887166067000,3.87906689453125,0.001832595793530345,-0.006719517521560192,-0.02076941914856434
1760285887176066800,3.88906689453125,-0.006719517521560192,-0.04642575979232788,-0.02382374368607998
1760285887186066700,3.899066650390625,-0.012217304669320583,-0.0507018156349659,-0.02687807008624077
1760285887196066800,3.90906689453125,-0.012828170321881771,-0.03298672288656235,-0.03237585723400116
1760285887206066700,3.919066650390625,-0.009773843921720982,-0.02015855349600315,-0.03237585723400116
1760285887216066800,3.92906689453125,-0.00733038317412138,-0.01160643994808197,-0.021380282938480377
1760285887226066700,3.939066650390625,-0.005497787147760391,-0.009162978269159794,-0.003054326167330146
1760285887236066800,3.94906689453125,-0.00733038317412138,-0.021991148591041565,0.010995574295520782
1760285887246067000,3.95906689453125,-0.01160643994808197,-0.029932396486401558,0.01466076634824276
1760285887256066800,3.96906689453125,-0.012828170321881771,-0.019547687843441963,0.006108652334660292
1760285887266067000,3.97906689453125,-0.013439035043120384,-0.00427605677396059,-0.00855211354792118
1760285887276066800,3.98906689453125,-0.013439035043120384,0.08552113175392151,0.01466076634824276
1760285887286067000,3.99906689453125,0.00733038317412138,0.16554448008537292,0.04703662544488907
1760285887296066800,4.00906689453125,0.02626720629632473,0.17104226350784302,0.06475171446800232
1760285887306067000,4.01906689453125,0.02932153269648552,0.1618792861700058,0.06536258012056351
1760285887316066800,4.02906689453125,0.033597588539123535,0.12217304855585098,0.04337143152952194
1760285887326067000,4.03906689453125,0.039095375686883926,0.08307767659425735,0.021380282938480377
1760285887336066800,4.04906689453125,0.04948008432984352,0.07452555745840073,-0.001832595793530345
1760285887346067000,4.05906689453125,0.06658431142568588,0.09346238523721695,-0.025045474991202354
1760285887356066800,4.06906689453125,0.07941248267889023,0.12889257073402405,-0.03848451003432274
1760285887366067000,4.07906689453125,0.08918632566928864,0.16982053220272064,-0.0354301854968071
1760285887376066800,4.08906689453125,0.09346238523721695,0.18570303916931152,-0.022602014243602753
1760285887386067000,4.09906689453125,0.08124507963657379,0.15882496535778046,-0.021991148591041565
1760285887396066800,4.10906689453125,0.059864792972803116,0.10262536257505417,-0.027488935738801956
1760285887406067000,4.11906689453125,0.03481931984424591,0.04337143152952194,-0.039706241339445114
1760285887416066800,4.12906689453125,0.013439035043120384,0.0024434609804302454,-0.05253441259264946
1760285887426067000,4.13906689453125,-0.004886921960860491,-0.018325956538319588,-0.06536258012056351
1760285887436066800,4.14906689453125,-0.01771509274840355,-0.022602014243602753,-0.07391469180583954
1760285887446067000,4.15906689453125,-0.022602014243602753,-0.015271631069481373,-0.07635815441608429
1760285887456066800,4.16906689453125,-0.012828170321881771,0.001832595793530345,-0.06719517707824707
1760285887466067000,4.17906689453125,-0.0024434609804302454,0.01160643994808197,-0.051312681287527084
1760285887476066800,4.18906689453125,0.00733038317412138,0.024434609338641167,-0.02871066704392433
1760285887486067000,4.19906689453125,0.015882495790719986,0.031154127791523933,-0.00855211354792118
1760285887496066800,4.20906689453125,0.01771509274840355,0.018325956538319588,0.0024434609804302454
1760285887506067000,4.21906689453125,0.015271631069481373,0.001832595793530345,0.0006108652451075613
1760285887516066800,4.22906689453125,0.01038470957428217,-0.009162978269159794,-0.01038470957428217
1760285887526067000,4.23906689453125,0.0006108652451075613,-0.027488935738801956,-0.031154127791523933
1760285887536066800,4.24906689453125,-0.005497787147760391,-0.025656340643763542,-0.04153883829712868
1760285887546066700,4.259066650390625,-0.012217304669320583,-0.00733038317412138,-0.04398229718208313
1760285887556066800,4.26906689453125,-0.018936822190880775,0.01160643994808197,-0.03298672288656235
1760285887566066700,4.279066650390625,-0.021991148591041565,0.024434609338641167,-0.01771509274840355
1760285887576066800,4.28906689453125,-0.02382374368607998,0.024434609338641167,-0.003054326167330146
1760285887586066700,4.299066650390625,-0.028099801391363144,0.013439035043120384,0.0024434609804302454
1760285887596066800,4.30906689453125,-0.03237585723400116,-0.012217304669320583,0.004886921960860491
1760285887606066700,4.319066650390625,-0.029932396486401558,-0.015882495790719986,0.005497787147760391
1760285887616066800,4.32906689453125,-0.02687807008624077,-0.01710422709584236,0.005497787147760391
1760285887626067000,4.33906689453125,-0.022602014243602753,-0.016493361443281174,0.001832595793530345
1760285887636066800,4.34906689453125,-0.016493361443281174,-0.006719517521560192,-0.003054326167330146
1760285887646067000,4.35906689453125,-0.015271631069481373,-0.0024434609804302454,-0.009162978269159794
1760285887656066800,4.36906689453125,-0.01710422709584236,-0.014049900695681572,-0.018936822190880775
1760285887666067000,4.37906689453125,-0.021380282938480377,-0.09529497474431992,-0.03848451003432274
1760285887676066800,4.38906689453125,-0.02871066704392433,-0.17043140530586243,-0.045204028487205505
1760285887686066700,4.399066650390625,-0.027488935738801956,-0.2119702398777008,-0.03787364438176155
1760285887696066800,4.40906689453125,-0.021991148591041565,-0.2174680233001709,-0.00855211354792118
1760285887706066700,4.419066650390625,-0.013439035043120384,-0.1875356286764145,0.02932153269648552
1760285887716066800,4.42906689453125,-0.00427605677396059,-0.1472185254096985,0.06719517707824707
1760285887726066700,4.439066650390625,-0.004886921960860491,-0.07757988572120667,0.10506882518529892
1760285887736066800,4.44906689453125,-0.01466076634824276,-0.07147123664617538,0.12339477986097336
1760285887746066700,4.459066650390625,-0.025656340643763542,-0.07880161702632904,0.12828169763088226
1760285887756066800,4.46906689453125,-0.02687807008624077,-0.07819075137376785,0.11362093687057495
1760285887766066700,4.479066650390625,-0.018936822190880775,-0.07208210229873657,0.0861319974064827
1760285887776066800,4.48906689453125,-0.00855211354792118,-0.05375614017248154,0.04886921867728233
1760285887786066700,4.499066650390625,0,-0.02871066704392433,0.006108652334660292
1760285887796066800,4.50906689453125,0.006719517521560192,-0.0024434609804302454,-0.045204028487205505
1760285887806066700,4.519066650390625,0.00733038317412138,0.00366519158706069,-0.060475658625364304
1760285887816066800,4.52906689453125,0.01038470957428217,0.00855211354792118,-0.05619960278272629
1760285887826066700,4.539066650390625,0.012828170321881771,0.00733038317412138,-0.04459316283464432
1760285887836066800,4.54906689453125,0.01160643994808197,0.0012217304902151227,-0.028099801391363144
1760285887846066700,4.559066650390625,0.012217304669320583,0.001832595793530345,-0.013439035043120384
1760285887856066800,4.56906689453125,0.01038470957428217,0.009773843921720982,-0.006108652334660292
1760285887866066700,4.579066650390625,0.00427605677396059,0.01038470957428217,-0.013439035043120384
1760285887876066800,4.58906689453125,-0.0006108652451075613,0.003054326167330146,-0.02382374368607998
1760285887886066700,4.599066650390625,-0.001832595793530345,-0.0006108652451075613,-0.031154127791523933
1760285887896066800,4.60906689453125,-0.0006108652451075613,-0.009162978269159794,-0.03298672288656235
1760285887906067000,4.61906689453125,0.0024434609804302454,-0.012217304669320583,-0.03787364438176155
1760285887916066800,4.62906689453125,0.00733038317412138,-0.004886921960860491,-0.04581489413976669
1760285887926066700,4.639066650390625,0.01160643994808197,0.004886921960860491,-0.05009094998240471
1760285887936066800,4.64906689453125,0.01710422709584236,-0.009773843921720982,-0.03726277872920036
1760285887946066700,4.659066650390625,0.02321287989616394,-0.02687807008624077,-0.021991148591041565
1760285887956066800,4.66906689453125,0.02626720629632473,-0.031154127791523933,-0.00855211354792118
1760285887966066700,4.679066650390625,0.025045474991202354,-0.028099801391363144,-0.0012217304902151227
1760285887976066800,4.68906689453125,0.022602014243602753,-0.02015855349600315,-0.0024434609804302454
1760285887986066700,4.699066650390625,0.02321287989616394,-0.01160643994808197,-0.010995574295520782
1760285887996066800,4.70906689453125,0.02076941914856434,-0.01038470957428217,-0.01771509274840355
1760285888006066700,4.719066650390625,0.01038470957428217,-0.006108652334660292,-0.018325956538319588
1760285888016066800,4.72906689453125,0.00366519158706069,-0.004886921960860491,-0.015271631069481373
1760285888026066700,4.739066650390625,-0.00366519158706069,-0.009773843921720982,-0.009162978269159794
1760285888036066800,4.74906689453125,-0.010995574295520782,-0.01466076634824276,-0.003054326167330146
1760285888046066700,4.759066650390625,-0.01160643994808197,-0.005497787147760391,0.0006108652451075613
1760285888056066800,4.76906689453125,-0.007941247895359993,0.009162978269159794,-0.0006108652451075613
1760285888066066700,4.779066650390625,-0.001832595793530345,0.019547687843441963,-0.005497787147760391
1760285888076066800,4.78906689453125,0.00427605677396059,0.013439035043120384,-0.0024434609804302454
1760285888086066700,4.799066650390625,0.006108652334660292,0.00366519158706069,0.00366519158706069
1760285888096066800,4.80906689453125,0.009162978269159794,-0.005497787147760391,0.006108652334660292
1760285888106066700,4.819066650390625,0.015271631069481373,-0.01710422709584236,0.003054326167330146
1760285888116066800,4.82906689453125,0.018325956538319588,-0.028099801391363144,0.003054326167330146
1760285888126066700,4.839066650390625,0.019547687843441963,-0.03787364438176155,0.00366519158706069
1760285888136066800,4.84906689453125,0.02076941914856434,-0.036651913076639175,0.004886921960860491
1760285888146066700,4.859066650390625,0.01466076634824276,-0.039706241339445114,0.005497787147760391
1760285888156066800,4.86906689453125,0.006108652334660292,-0.03726277872920036,0.009162978269159794
1760285888166066700,4.879066650390625,0.00733038317412138,0.03726277872920036,0.013439035043120384
1760285888176066800,4.88906689453125,0.02626720629632473,0.08674286305904388,-0.007941247895359993
1760285888186066700,4.899066650390625,0.03848451003432274,0.07452555745840073,-0.028099801391363144
1760285888196066800,4.90906689453125,0.0354301854968071,0.05497787147760391,-0.04459316283464432
1760285888206066700,4.919066650390625,0.02076941914856434,0.0024434609804302454,-0.04459316283464432
1760285888216066800,4.92906689453125,-0.012217304669320583,-0.0757472887635231,-0.015882495790719986
1760285888226066700,4.939066650390625,-0.027488935738801956,-0.09162978827953339,0.005497787147760391
1760285888236066800,4.94906689453125,-0.02932153269648552,-0.07635815441608429,0.02076941914856434
1760285888246066700,4.959066650390625,-0.02015855349600315,-0.036041051149368286,0.028099801391363144
1760285888256066800,4.96906689453125,-0.006719517521560192,-0.005497787147760391,0.031154127791523933
1760285888266066700,4.979066650390625,-0.0012217304902151227,0.0012217304902151227,0.029932396486401558
1760285888276066800,4.98906689453125,-0.004886921960860491,-0.00855211354792118,0.024434609338641167
1760285888286066700,4.999066650390625,-0.015882495790719986,-0.03237585723400116,0.010995574295520782
1760285888296066800,5.00906689453125,-0.01771509274840355,-0.02687807008624077,-0.00427605677396059
1760285888306066700,5.019066650390625,-0.018936822190880775,-0.006719517521560192,-0.02076941914856434
1760285888316066800,5.02906689453125,-0.016493361443281174,0.012217304669320583,-0.036041051149368286
1760285888326066700,5.039066650390625,-0.006719517521560192,0.02871066704392433,-0.045204028487205505
1760285888336066800,5.04906689453125,0.00427605677396059,0.0354301854968071,-0.048258353024721146
1760285888346066700,5.059066650390625,0.009162978269159794,0.018936822190880775,-0.033597588539123535
1760285888356066800,5.06906689453125,0.00427605677396059,0.00855211354792118,-0.021991148591041565
1760285888366066700,5.079066650390625,-0.006108652334660292,0.006108652334660292,-0.00855211354792118
1760285888376066800,5.08906689453125,-0.018325956538319588,0.004886921960860491,-0.0006108652451075613
1760285888386066700,5.099066650390625,-0.02687807008624077,0.00855211354792118,0.0012217304902151227
1760285888396066800,5.10906689453125,-0.02687807008624077,0.021991148591041565,-0.00855211354792118
1760285888406066700,5.119066650390625,-0.01771509274840355,0.0354301854968071,-0.02382374368607998
1760285888416066800,5.12906689453125,-0.00733038317412138,0.0354301854968071,-0.04092797264456749
1760285888426066700,5.139066650390625,-0.005497787147760391,0.03298672288656235,-0.04153883829712868
1760285888436066800,5.14906689453125,-0.00855211354792118,0.024434609338641167,-0.030543262138962746
1760285888446066700,5.159066650390625,-0.014049900695681572,0.006719517521560192,-0.012828170321881771
1760285888456066800,5.16906689453125,-0.021991148591041565,-0.009773843921720982,0.00855211354792118
1760285888466066700,5.179066650390625,-0.02687807008624077,-0.012217304669320583,0.028099801391363144
1760285888476066800,5.18906689453125,-0.028099801391363144,-0.0024434609804302454,0.042760565876960754
1760285888486066700,5.199066650390625,-0.031154127791523933,0.006719517521560192,0.051312681287527084
1760285888496066800,5.20906689453125,-0.0403171069920063,-0.0006108652451075613,0.05619960278272629
1760285888506066700,5.219066650390625,-0.05192354694008827,-0.018325956538319588,0.06230825558304787
1760285888516066800,5.22906689453125,-0.0507018156349659,-0.0354301854968071,0.06230825558304787
1760285888536066800,5.24906689453125,-0.028099801391363144,-0.024434609338641167,0.04214970022439957
1760285888546066700,5.259066650390625,-0.018936822190880775,-0.01466076634824276,0.025656340643763542
1760285888556066800,5.26906689453125,-0.018936822190880775,-0.01710422709584236,0.01771509274840355
1760285888566066700,5.279066650390625,-0.021991148591041565,-0.01710422709584236,0.018936822190880775
1760285888576066800,5.28906689453125,-0.025656340643763542,-0.01771509274840355,0.02321287989616394
1760285888586066700,5.299066650390625,-0.027488935738801956,-0.013439035043120384,0.02626720629632473
1760285888596066800,5.30906689453125,-0.02321287989616394,-0.001832595793530345,0.02687807008624077
1760285888606066700,5.319066650390625,-0.015271631069481373,0.01160643994808197,0.02321287989616394
1760285888616066800,5.32906689453125,-0.006719517521560192,0.01710422709584236,0.01160643994808197
1760285888626066700,5.339066650390625,0.0012217304902151227,0.00427605677396059,0.0006108652451075613
1760285888636066800,5.34906689453125,0.003054326167330146,-0.00855211354792118,0.0012217304902151227
1760285888646066700,5.359066650390625,0.006108652334660292,-0.006719517521560192,0.00366519158706069
1760285888656066800,5.36906689453125,0.01466076634824276,-0.00366519158706069,0.001832595793530345
1760285888666066700,5.379066650390625,0.025045474991202354,-0.001832595793530345,-0.009773843921720982
1760285888676066800,5.38906689453125,0.03481931984424591,0.004886921960860491,-0.028099801391363144
1760285888686066700,5.399066650390625,0.04092797264456749,0.009773843921720982,-0.04214970022439957
1760285888696066800,5.40906689453125,0.03726277872920036,0.00855211354792118,-0.04886921867728233
1760285888706066700,5.419066650390625,0.02932153269648552,0.01160643994808197,-0.048258353024721146
1760285888716066800,5.42906689453125,0.018936822190880775,0.02015855349600315,-0.045204028487205505
1760285888726066700,5.439066650390625,0.00855211354792118,0.024434609338641167,-0.04398229718208313
1760285888736066800,5.44906689453125,0.001832595793530345,0.01771509274840355,-0.0403171069920063
1760285888746066700,5.459066650390625,0.003054326167330146,0.004886921960860491,-0.03726277872920036
1760285888756066800,5.46906689453125,0.00733038317412138,-0.0006108652451075613,-0.03176499158143997
1760285888766066700,5.479066650390625,0.01710422709584236,0.005497787147760391,-0.02871066704392433
1760285888776066800,5.48906689453125,0.018936822190880775,0.01160643994808197,-0.029932396486401558
1760285888786066700,5.499066650390625,0.014049900695681572,0.02076941914856434,-0.025045474991202354
1760285888796066800,5.50906689453125,0.0024434609804302454,0.025656340643763542,-0.01710422709584236
1760285888806066700,5.519066650390625,-0.01160643994808197,0.016493361443281174,-0.005497787147760391
1760285888816066800,5.52906689453125,-0.021991148591041565,-0.001832595793530345,0.0012217304902151227
1760285888826066700,5.539066650390625,-0.02321287989616394,-0.012828170321881771,-0.0012217304902151227
1760285888836066800,5.54906689453125,-0.014049900695681572,-0.004886921960860491,-0.010995574295520782
1760285888846066700,5.559066650390625,-0.00427605677396059,0.009773843921720982,-0.02015855349600315
1760285888856066800,5.56906689453125,0.0024434609804302454,0.021380282938480377,-0.02382374368607998
1760285888866066700,5.579066650390625,0.00366519158706069,0.02076941914856434,-0.014049900695681572
1760285888876066800,5.58906689453125,0.00427605677396059,0.009162978269159794,0.0012217304902151227
1760285888886066700,5.599066650390625,0.001832595793530345,-0.01160643994808197,0.02015855349600315
1760285888896066800,5.60906689453125,-0.006108652334660292,-0.02076941914856434,0.03481931984424591
1760285888906066700,5.619066650390625,-0.019547687843441963,0.056810468435287476,-0.04214970022439957
1760285888916066800,5.62906689453125,-0.027488935738801956,0.031154127791523933,-0.05497787147760391
1760285888926066700,5.639066650390625,-0.015271631069481373,0.054367005825042725,-0.04948008432984352
1760285888936066800,5.64906689453125,0.01038470957428217,0.06414084881544113,-0.039095375686883926
1760285888946066700,5.659066650390625,0.014049900695681572,0.04459316283464432,-0.027488935738801956
1760285888956066800,5.66906689453125,0,0.05314527451992035,-0.02015855349600315
1760285888966066700,5.679066650390625,-0.004886921960860491,0.08552113175392151,-0.01160643994808197
1760285888976066800,5.68906689453125,0.01160643994808197,0.08185594528913498,-0.0006108652451075613
1760285888986066700,5.699066650390625,0.02076941914856434,0.056810468435287476,-0.0006108652451075613
1760285888996066800,5.70906689453125,0.02687807008624077,0.030543262138962746,-0.004886921960860491
1760285889006066700,5.719066650390625,0.03420845419168472,0.006719517521560192,-0.010995574295520782
1760285889016066800,5.72906689453125,0.039706241339445114,-0.01710422709584236,-0.021991148591041565
1760285889026066700,5.739066650390625,0.04214970022439957,-0.02687807008624077,-0.028099801391363144
1760285889036066800,5.74906689453125,0.03787364438176155,-0.009162978269159794,-0.030543262138962746
1760285889046066700,5.759066650390625,0.030543262138962746,0.01038470957428217,-0.029932396486401558
1760285889056066800,5.76906689453125,0.025045474991202354,0.018325956538319588,-0.02932153269648552
1760285889066066700,5.779066650390625,0.02382374368607998,0.006719517521560192,-0.031154127791523933
1760285889076066800,5.78906689453125,0.025045474991202354,-0.013439035043120384,-0.03237585723400116
1760285889086066700,5.799066650390625,0.02932153269648552,-0.029932396486401558,-0.02871066704392433
1760285889096066800,5.80906689453125,0.03237585723400116,-0.03420845419168472,-0.01771509274840355
1760285889106066700,5.819066650390625,0.03176499158143997,-0.02076941914856434,0.004886921960860491
1760285889116066800,5.82906689453125,0.02382374368607998,-0.016493361443281174,0.021380282938480377
1760285889126066700,5.839066650390625,0.01160643994808197,-0.02626720629632473,0.031154127791523933
1760285889136066800,5.84906689453125,-0.004886921960860491,-0.04703662544488907,0.036651913076639175
1760285889146066700,5.859066650390625,-0.016493361443281174,-0.06291911751031876,0.04459316283464432
1760285889156066800,5.86906689453125,-0.018936822190880775,-0.06475171446800232,0.05192354694008827
1760285889166066700,5.879066650390625,-0.015882495790719986,-0.07024950534105301,0.07024950534105301
1760285889176066800,5.88906689453125,-0.016493361443281174,-0.07941248267889023,0.10201449692249298
1760285889186066700,5.899066650390625,-0.021991148591041565,-0.04337143152952194,0.08979719132184982
1760285889196066800,5.90906689453125,-0.021380282938480377,-0.006719517521560192,0.054367005825042725
1760285889206066700,5.919066650390625,-0.015882495790719986,0.004886921960860491,0.01710422709584236
1760285889216066800,5.92906689453125,-0.015271631069481373,-0.001832595793530345,-0.012828170321881771
1760285889226066700,5.939066650390625,-0.028099801391363144,-0.013439035043120384,-0.03420845419168472
1760285889236066800,5.94906689453125,-0.03848451003432274,-0.02076941914856434,-0.04337143152952194
1760285889246066700,5.959066650390625,-0.033597588539123535,-0.01466076634824276,-0.03420845419168472
1760285889256066800,5.96906689453125,-0.024434609338641167,-0.00427605677396059,-0.01466076634824276
1760285889266066700,5.979066650390625,-0.016493361443281174,0.009773843921720982,0.01160643994808197
1760285889276066800,5.98906689453125,-0.00855211354792118,0.019547687843441963,0.030543262138962746
1760285889286066700,5.999066650390625,-0.0006108652451075613,0.02015855349600315,0.0354301854968071
1760285889296066800,6.00906689453125,-0.0012217304902151227,0.015882495790719986,0.024434609338641167
1760285889306066700,6.019066650390625,-0.005497787147760391,0.005497787147760391,0.006108652334660292
1760285889316066800,6.02906689453125,-0.01160643994808197,-0.018325956538319588,-0.021380282938480377
1760285889326066700,6.039066650390625,-0.013439035043120384,-0.029932396486401558,-0.02932153269648552
1760285889336066800,6.04906689453125,-0.010995574295520782,-0.039095375686883926,-0.025656340643763542
1760285889346066700,6.059066650390625,-0.00733038317412138,-0.036041051149368286,-0.014049900695681572
1760285889356066800,6.06906689453125,0.0024434609804302454,-0.021380282938480377,-0.001832595793530345
1760285889366066700,6.079066650390625,0.01466076634824276,-0.00427605677396059,0.00427605677396059
1760285889376066800,6.08906689453125,0.018325956538319588,0.09407325088977814,-0.0708603709936142
1760285889386066700,6.099066650390625,-0.009162978269159794,0.03787364438176155,-0.09651670604944229
1760285889396066800,6.10906689453125,-0.012217304669320583,0.024434609338641167,-0.06841690838336945
1760285889406066700,6.119066650390625,0.01038470957428217,0.02321287989616394,-0.048258353024721146
1760285889416066800,6.12906689453125,0.01466076634824276,-0.0012217304902151227,-0.036041051149368286
1760285889426066700,6.139066650390625,-0.00366519158706069,-0.0012217304902151227,-0.03481931984424591
1760285889436066800,6.14906689453125,-0.018325956538319588,0.022602014243602753,-0.04153883829712868
1760285889446066700,6.159066650390625,-0.01710422709584236,0.033597588539123535,-0.04642575979232788
1760285889456066800,6.16906689453125,-0.0006108652451075613,0.03176499158143997,-0.042760565876960754
1760285889466066700,6.179066650390625,0.012217304669320583,0.02932153269648552,-0.03848451003432274
1760285889476066800,6.18906689453125,0.02015855349600315,0.02321287989616394,-0.03298672288656235
1760285889486066700,6.199066650390625,0.02687807008624077,0.010995574295520782,-0.02626720629632473
1760285889496066800,6.20906689453125,0.02871066704392433,0.004886921960860491,-0.01771509274840355
1760285889506066700,6.219066650390625,0.030543262138962746,0,-0.01466076634824276
1760285889516066800,6.22906689453125,0.029932396486401558,-0.0024434609804302454,-0.022602014243602753
1760285889526066700,6.239066650390625,0.02932153269648552,0,-0.039706241339445114
1760285889536066800,6.24906689453125,0.02871066704392433,0,-0.04459316283464432
1760285889546066700,6.259066650390625,0.02626720629632473,-0.003054326167330146,-0.03481931984424591
1760285889556066800,6.26906689453125,0.025656340643763542,-0.006108652334660292,-0.02015855349600315
1760285889566066700,6.279066650390625,0.02687807008624077,0.0006108652451075613,-0.006719517521560192
1760285889576066800,6.28906689453125,0.02687807008624077,0.00427605677396059,0.004886921960860491
1760285889586066700,6.299066650390625,0.031154127791523933,0.00427605677396059,0.013439035043120384
1760285889596066800,6.30906689453125,0.039095375686883926,0.0024434609804302454,0.018936822190880775
1760285889606066700,6.319066650390625,0.039706241339445114,-0.003054326167330146,0.013439035043120384
1760285889616066800,6.32906689453125,0.036041051149368286,-0.00855211354792118,0
1760285889626066700,6.339066650390625,0.03237585723400116,-0.016493361443281174,-0.016493361443281174
1760285889636066800,6.34906689453125,0.027488935738801956,-0.016493361443281174,-0.02626720629632473
1760285889646066700,6.359066650390625,0.024434609338641167,-0.004886921960860491,-0.031154127791523933
1760285889656066800,6.36906689453125,0.021380282938480377,-0.0012217304902151227,-0.031154127791523933
1760285889666067000,6.37906689453125,0.01466076634824276,-0.0012217304902151227,-0.025045474991202354
1760285889676066800,6.38906689453125,0.003054326167330146,0.001832595793530345,-0.009773843921720982
1760285889686066700,6.399066650390625,-0.013439035043120384,-0.00427605677396059,0.01160643994808197
1760285889696066800,6.40906689453125,-0.02687807008624077,-0.02015855349600315,0.0354301854968071
1760285889706066700,6.419066650390625,-0.03237585723400116,-0.03726277872920036,0.054367005825042725
1760285889716066800,6.42906689453125,-0.02871066704392433,-0.04398229718208313,0.06536258012056351
1760285889726066700,6.439066650390625,-0.010995574295520782,-0.03787364438176155,0.07269296050071716
1760285889736066800,6.44906689453125,-0.004886921960860491,-0.03787364438176155,0.0757472887635231
1760285889746066700,6.459066650390625,-0.012217304669320583,-0.042760565876960754,0.07941248267889023
1760285889756066800,6.46906689453125,-0.02321287989616394,-0.029932396486401558,0.07147123664617538
1760285889766066700,6.479066650390625,-0.02932153269648552,-0.009162978269159794,0.04948008432984352
1760285889776066800,6.48906689453125,-0.028099801391363144,0.007941247895359993,0.02015855349600315
1760285889786066700,6.499066650390625,-0.02626720629632473,0.02015855349600315,-0.006108652334660292
1760285889796066800,6.50906689453125,-0.019547687843441963,0.018325956538319588,-0.02932153269648552
1760285889806066700,6.519066650390625,-0.009773843921720982,0.0012217304902151227,-0.02687807008624077
1760285889816066800,6.52906689453125,-0.0006108652451075613,-0.027488935738801956,-0.012828170321881771
1760285889826066700,6.539066650390625,0.004886921960860491,-0.039095375686883926,0.00427605677396059
1760285889836066800,6.54906689453125,0.01160643994808197,-0.029932396486401558,0.01038470957428217
1760285889846066700,6.559066650390625,0.018936822190880775,-0.013439035043120384,0.00855211354792118
1760285889856066800,6.56906689453125,0.02076941914856434,0.00733038317412138,0.003054326167330146
1760285889866066700,6.579066650390625,0.027488935738801956,0.039095375686883926,-0.00733038317412138
1760285889876066800,6.58906689453125,0.0354301854968071,0.04581489413976669,-0.01710422709584236
1760285889886067000,6.59906689453125,0.04459316283464432,0.04092797264456749,-0.031154127791523933
1760285889896066800,6.60906689453125,0.05253441259264946,0.02321287989616394,-0.03726277872920036
1760285889906067000,6.61906689453125,0.05314527451992035,0.004886921960860491,-0.036651913076639175
1760285889916066800,6.62906689453125,0.05253441259264946,-0.007941247895359993,-0.03787364438176155
1760285889926066700,6.639066650390625,0.0507018156349659,-0.007941247895359993,-0.04398229718208313
1760285889936066800,6.64906689453125,0.05375614017248154,0.00733038317412138,-0.04642575979232788
1760285889946066700,6.659066650390625,0.0555887371301651,0.009162978269159794,-0.03848451003432274
1760285889956066800,6.66906689453125,0.05864306539297104,0.007941247895359993,-0.02932153269648552
1760285889966066700,6.679066650390625,0.05925392732024193,0.015271631069481373,-0.018325956538319588
1760285889976066800,6.68906689453125,0.06230825558304787,0.025045474991202354,-0.01160643994808197
1760285889986066700,6.699066650390625,0.06414084881544113,0.022602014243602753,-0.00366519158706069
1760285889996066800,6.70906689453125,0.06963863968849182,0.018936822190880775,0.0024434609804302454
1760285890006066700,6.719066650390625,0.06108652427792549,0.025045474991202354,-0.00427605677396059
1760285890016066800,6.72906689453125,0.04459316283464432,0.01038470957428217,-0.02076941914856434
1760285890026066700,6.739066650390625,0.033597588539123535,-0.01038470957428217,-0.03481931984424591
1760285890036066800,6.74906689453125,0.0354301854968071,-0.015882495790719986,-0.04459316283464432
1760285890046066700,6.759066650390625,0.051312681287527084,-0.015882495790719986,-0.06169738993048668
1760285890056066800,6.76906689453125,0.06841690838336945,-0.012828170321881771,-0.07269296050071716
1760285890066066700,6.779066650390625,0.08552113175392151,-0.001832595793530345,-0.06475171446800232
1760285890076066800,6.78906689453125,0.0959058403968811,0.005497787147760391,-0.016493361443281174
1760285890086066700,6.799066650390625,0.09040805697441101,0.005497787147760391,0.024434609338641167
1760285890096066800,6.80906689453125,0.08552113175392151,0.006108652334660292,0.05619960278272629
1760285890106066700,6.819066650390625,0.08002334833145142,0.007941247895359993,0.07024950534105301
1760285890116066800,6.82906689453125,0.08185594528913498,0.028099801391363144,0.0659734457731247
1760285890126066700,6.839066650390625,0.09407325088977814,0.06658431142568588,0.05864306539297104
1760285890136066800,6.84906689453125,0.10690141469240189,0.09407325088977814,0.06169738993048668
1760285890146066700,6.859066650390625,0.11911872029304504,0.09773843735456467,0.09224065393209457
1760285890156066800,6.86906689453125,0.13439035415649414,0.07391469180583954,0.1014036312699318
1760285890166066700,6.879066650390625,0.1417207419872284,0.05803219974040985,0.0959058403968811
1760285890176066800,6.88906689453125,0.13316862285137177,0.05864306539297104,0.0806342139840126
1760285890186066700,6.899066650390625,0.10812314599752426,0.060475658625364304,0.06352998316287994
1760285890196066800,6.90906689453125,0.07208210229873657,0.05253441259264946,0.04214970022439957
1760285890206066700,6.919066650390625,0.036041051149368286,0.03481931984424591,0.015271631069481373
1760285890216066800,6.92906689453125,-0.003054326167330146,0.006108652334660292,-0.03298672288656235
1760285890226066700,6.939066650390625,-0.027488935738801956,-0.07941248267889023,0.021380282938480377
1760285890236066800,6.94906689453125,-0.03726277872920036,-0.14477506279945374,0.1270599663257599
1760285890246066700,6.959066650390625,-0.04092797264456749,-0.1618792861700058,0.21991148591041565
1760285890256066800,6.96906689453125,-0.033597588539123535,-0.13805554807186127,0.29016098380088806
1760285890266066700,6.979066650390625,-0.016493361443281174,-0.06475171446800232,0.32498031854629517
1760285890276066800,6.98906689453125,-0.01038470957428217,0.02382374368607998,0.29504790902137756
1760285890286066700,6.999066650390625,0.001832595793530345,0.03848451003432274,0.12767083942890167
1760285890296066800,7.00906689453125,0.01160643994808197,0.02382374368607998,-0.03237585723400116
1760285890306066700,7.019066650390625,0.022602014243602753,0.04642575979232788,-0.20341812074184418
1760285890316066800,7.02906689453125,0.045204028487205505,0.08246681094169617,-0.3604104816913605
1760285890326066700,7.039066650390625,0.06719517707824707,0.06963863968849182,-0.46364670991897583
1760285890336066800,7.04906689453125,0.07941248267889023,0.0024434609804302454,-0.485027015209198
1760285890346066700,7.059066650390625,0.00733038317412138,-0.10323622822761536,-0.3683517575263977
1760285890356066800,7.06906689453125,-0.04092797264456749,-0.11667526513338089,-0.24923302233219147
1760285890366066700,7.079066650390625,-0.05375614017248154,-0.06414084881544113,-0.12950342893600464
1760285890376066800,7.08906689453125,-0.0354301854968071,0.0012217304902151227,-0.02076941914856434
1760285890406066700,7.119066650390625,0.06902777403593063,0.03481931984424591,0.09040805697441101
1760285890426066700,7.139066650390625,0.07024950534105301,0.01710422709584236,-0.03298672288656235
1760285890446066700,7.159066650390625,0.03848451003432274,-0.02321287989616394,-0.09346238523721695
1760285890456066800,7.16906689453125,0.028099801391363144,-0.016493361443281174,-0.09407325088977814
1760285890466066700,7.179066650390625,0.022602014243602753,-0.01038470957428217,-0.07941248267889023
1760285890476066800,7.18906689453125,0.01710422709584236,-0.001832595793530345,-0.056810468435287476
1760285890486066700,7.199066650390625,0.01038470957428217,0.018325956538319588,-0.02321287989616394
1760285890496066800,7.20906689453125,0.004886921960860491,0.02382374368607998,-0.0006108652451075613
1760285890506066700,7.219066650390625,-0.006108652334660292,0.00855211354792118,0.025656340643763542
1760285890516066800,7.22906689453125,-0.02382374368607998,-0.018325956538319588,0.04642575979232788
1760285890526066700,7.239066650390625,-0.04153883829712868,-0.04398229718208313,0.05375614017248154
1760285890536066800,7.24906689453125,-0.051312681287527084,-0.056810468435287476,0.036041051149368286
1760285890546066700,7.259066650390625,-0.04703662544488907,-0.04581489413976669,0.009162978269159794
1760285890556066800,7.26906689453125,-0.03237585723400116,-0.016493361443281174,-0.021991148591041565
1760285890566066700,7.279066650390625,-0.02687807008624077,-0.005497787147760391,-0.030543262138962746
1760285890576066800,7.28906689453125,-0.02076941914856434,-0.006719517521560192,-0.02932153269648552
1760285890586066700,7.299066650390625,-0.015882495790719986,-0.003054326167330146,-0.014049900695681572
1760285890596066800,7.30906689453125,-0.01038470957428217,0.0006108652451075613,0.00855211354792118
1760285890606066700,7.319066650390625,-0.004886921960860491,0.0006108652451075613,0.028099801391363144
1760285890616066800,7.32906689453125,0.00427605677396059,0.003054326167330146,0.03848451003432274
1760285890626066700,7.339066650390625,0.015882495790719986,-0.0024434609804302454,0.033597588539123535
1760285890636066800,7.34906689453125,0.021991148591041565,-0.014049900695681572,0.021380282938480377
1760285890646066700,7.359066650390625,0.02015855349600315,-0.02687807008624077,0.00733038317412138
1760285890656066800,7.36906689453125,0.01038470957428217,-0.0354301854968071,-0.01710422709584236
1760285890666066700,7.379066650390625,-0.006719517521560192,-0.029932396486401558,-0.039706241339445114
1760285890676066800,7.38906689453125,-0.021991148591041565,-0.01466076634824276,-0.04948008432984352
1760285890686066700,7.399066650390625,-0.029932396486401558,0.0006108652451075613,-0.04703662544488907
1760285890696066800,7.40906689453125,-0.031154127791523933,0.006108652334660292,-0.024434609338641167
1760285890706066700,7.419066650390625,-0.031154127791523933,0.001832595793530345,-0.00855211354792118
1760285890716066800,7.42906689453125,-0.031154127791523933,0.006108652334660292,0.006719517521560192
1760285890726066700,7.439066650390625,-0.03298672288656235,0.015882495790719986,0.015882495790719986
1760285890736066800,7.44906689453125,-0.028099801391363144,0.031154127791523933,0.01466076634824276
1760285890746066700,7.459066650390625,-0.01771509274840355,0.03848451003432274,0.009162978269159794
1760285890756066800,7.46906689453125,-0.004886921960860491,0.029932396486401558,-0.0006108652451075613
1760285890766066700,7.479066650390625,0.009773843921720982,0.00427605677396059,-0.025045474991202354
1760285890776066800,7.48906689453125,0.016493361443281174,-0.016493361443281174,-0.0403171069920063
1760285890786066700,7.499066650390625,0.01466076634824276,-0.031154127791523933,-0.05009094998240471
1760285890796066800,7.50906689453125,0.007941247895359993,-0.03481931984424591,-0.051312681287527084
1760285890806066700,7.519066650390625,0.004886921960860491,-0.03176499158143997,-0.04764748737215996
1760285890816066800,7.52906689453125,0.00427605677396059,-0.03176499158143997,-0.036651913076639175
1760285890826066700,7.539066650390625,0,-0.024434609338641167,-0.02321287989616394
1760285890836066800,7.54906689453125,-0.01160643994808197,-0.010995574295520782,0.006719517521560192
1760285890846066700,7.559066650390625,-0.016493361443281174,-0.009773843921720982,0.024434609338641167
1760285890856066800,7.56906689453125,-0.02076941914856434,-0.013439035043120384,0.036651913076639175
1760285890866066700,7.579066650390625,-0.02321287989616394,-0.013439035043120384,0.04092797264456749
1760285890886066700,7.599066650390625,-0.018325956538319588,-0.009162978269159794,0.018325956538319588
1760285890896066800,7.60906689453125,-0.016493361443281174,-0.0012217304902151227,0.00855211354792118
1760285890906066700,7.619066650390625,-0.01466076634824276,0.012217304669320583,0.009162978269159794
1760285890926066700,7.639066650390625,-0.021991148591041565,-0.004886921960860491,0.012828170321881771
1760285890936066800,7.64906689453125,-0.02382374368607998,-0.012828170321881771,0.00427605677396059
1760285890946066700,7.659066650390625,-0.021380282938480377,-0.01160643994808197,-0.004886921960860491
1760285890956066800,7.66906689453125,-0.02015855349600315,-0.019547687843441963,-0.00855211354792118
1760285890966066700,7.679066650390625,-0.021991148591041565,-0.02687807008624077,-0.012217304669320583
1760285890976066800,7.68906689453125,-0.03176499158143997,-0.02382374368607998,-0.01710422709584236
1760285890986066700,7.699066650390625,-0.0354301854968071,-0.02626720629632473,-0.00855211354792118
1760285890996066800,7.70906689453125,-0.033597588539123535,-0.02321287989616394,0.01038470957428217
1760285891006066700,7.719066650390625,-0.031154127791523933,-0.015271631069481373,0.029932396486401558
1760285891016066800,7.72906689453125,-0.02626720629632473,-0.009773843921720982,0.04459316283464432
1760285891026066700,7.739066650390625,-0.018936822190880775,-0.006719517521560192,0.048258353024721146
1760285891036066800,7.74906689453125,-0.001832595793530345,0.005497787147760391,0.033597588539123535
1760285891046066700,7.759066650390625,0.006719517521560192,0.018325956538319588,0.02076941914856434
1760285891056066800,7.76906689453125,0.012828170321881771,0.04459316283464432,0.012217304669320583
1760285891066066700,7.779066650390625,0.02015855349600315,0.08857546001672745,-0.0024434609804302454
1760285891076066800,7.78906689453125,0.025045474991202354,0.11789698898792267,-0.02932153269648552
1760285891086066700,7.799066650390625,0.02626720629632473,0.11789698898792267,-0.06169738993048668
1760285891096066800,7.80906689453125,0.02382374368607998,0.08796459436416626,-0.09040805697441101
1760285891106066700,7.819066650390625,0.013439035043120384,0.018325956538319588,-0.10201449692249298
1760285891116066800,7.82906689453125,0.0012217304902151227,-0.02626720629632473,-0.08857546001672745
1760285891126066700,7.839066650390625,-0.012828170321881771,-0.06108652427792549,-0.06658431142568588
1760285891136066800,7.84906689453125,-0.019547687843441963,-0.08979719132184982,-0.04092797264456749
1760285891146066700,7.859066650390625,-0.013439035043120384,-0.09957103431224823,-0.014049900695681572
1760285891156066800,7.86906689453125,0,-0.06352998316287994,0.01710422709584236
1760285891166066700,7.879066650390625,0.012828170321881771,-0.01160643994808197,0.0354301854968071
1760285891176066800,7.88906689453125,0.010995574295520782,0.019547687843441963,0.03726277872920036
1760285891186066700,7.899066650390625,-0.003054326167330146,0.01160643994808197,0.03176499158143997
1760285891196066800,7.90906689453125,-0.01710422709584236,-0.005497787147760391,0.027488935738801956
1760285891206066700,7.919066650390625,-0.019547687843441963,-0.015271631069481373,0.02015855349600315
1760285891216066800,7.92906689453125,-0.013439035043120384,-0.018325956538319588,0.014049900695681572
1760285891226066700,7.939066650390625,-0.005497787147760391,-0.02015855349600315,0.01038470957428217
1760285891236066800,7.94906689453125,-0.001832595793530345,-0.02321287989616394,0.012828170321881771
1760285891246066700,7.959066650390625,0.00427605677396059,-0.014049900695681572,0.019547687843441963
1760285891256066800,7.96906689453125,0.00733038317412138,-0.013439035043120384,0.02382374368607998
1760285891266066700,7.979066650390625,0.007941247895359993,-0.021380282938480377,0.021991148591041565
1760285891276066800,7.98906689453125,0.00733038317412138,-0.02015855349600315,0.018325956538319588
1760285891286066700,7.999066650390625,0.006108652334660292,-0.01038470957428217,0.006108652334660292
1760285891296066800,8.00906689453125,0.0006108652451075613,-0.0006108652451075613,-0.00427605677396059
1760285891306066700,8.019066650390625,-0.00733038317412138,0.009162978269159794,-0.012828170321881771
1760285891316066800,8.02906689453125,-0.012217304669320583,0.02626720629632473,-0.021991148591041565
1760285891326066700,8.039066650390625,-0.00855211354792118,0.036041051149368286,-0.02076941914856434
1760285891336066800,8.04906689453125,-0.003054326167330146,0.04214970022439957,-0.01710422709584236
1760285891346066700,8.059066650390625,0.0012217304902151227,0.03298672288656235,-0.015882495790719986
1760285891356066800,8.06906689453125,0.001832595793530345,0.013439035043120384,-0.01710422709584236
1760285891366066700,8.079066650390626,-0.0024434609804302454,-0.006108652334660292,-0.01771509274840355
1760285891376066800,8.08906689453125,-0.00733038317412138,-0.018325956538319588,-0.016493361443281174
1760285891386066700,8.099066650390625,-0.012828170321881771,-0.004886921960860491,-0.016493361443281174
1760285891396066800,8.10906689453125,-0.015882495790719986,0.014049900695681572,-0.022602014243602753
1760285891406066700,8.119066650390625,-0.01710422709584236,0.029932396486401558,-0.031154127791523933
1760285891416066800,8.12906689453125,-0.01466076634824276,0.039095375686883926,-0.04153883829712868
1760285891426066700,8.139066650390625,-0.00733038317412138,0.04581489413976669,-0.04703662544488907
1760285891446066700,8.159066650390624,0.0006108652451075613,0.027488935738801956,-0.04337143152952194
1760285891456066800,8.16906689453125,-0.0006108652451075613,0.012217304669320583,-0.02382374368607998
1760285891466066700,8.179066650390626,-0.00733038317412138,0.005497787147760391,-0.007941247895359993
1760285891476066800,8.18906689453125,-0.021380282938480377,-0.00427605677396059,0.006108652334660292
1760285891486066700,8.199066650390625,-0.036041051149368286,-0.01466076634824276,0.02015855349600315
1760285891496066800,8.20906689453125,-0.04214970022439957,-0.02015855349600315,0.02932153269648552
1760285891506066700,8.219066650390625,-0.0403171069920063,-0.019547687843441963,0.02932153269648552
1760285891516066800,8.22906689453125,-0.031154127791523933,-0.016493361443281174,0.02321287989616394
1760285891526066700,8.239066650390624,-0.012828170321881771,-0.00427605677396059,0.012828170321881771
1760285891536066800,8.24906689453125,-0.005497787147760391,0.003054326167330146,0.012217304669320583
1760285891546066700,8.259066650390626,-0.0024434609804302454,0.004886921960860491,0.016493361443281174
1760285891556066800,8.26906689453125,-0.006108652334660292,-0.00366519158706069,0.021380282938480377
1760285891566066700,8.279066650390625,-0.012828170321881771,-0.01160643994808197,0.025656340643763542
1760285891576066800,8.28906689453125,-0.018325956538319588,-0.01466076634824276,0.02871066704392433
1760285891596066800,8.30906689453125,-0.0024434609804302454,-0.006108652334660292,0.021991148591041565
1760285891606066700,8.319066650390624,0.01038470957428217,0.009773843921720982,0.015882495790719986
1760285891616066800,8.32906689453125,0.015882495790719986,0.018936822190880775,0.00733038317412138
1760285891626066700,8.339066650390626,0.013439035043120384,0.019547687843441963,-0.0006108652451075613
1760285891636066800,8.34906689453125,0.00427605677396059,0.014049900695681572,-0.001832595793530345
1760285891646066700,8.359066650390625,-0.004886921960860491,0.010995574295520782,0.005497787147760391
1760285891656066800,8.36906689453125,-0.01160643994808197,0.009162978269159794,0.025045474991202354
1760285891666066700,8.379066650390625,-0.015271631069481373,0.009162978269159794,0.056810468435287476
1760285891676066800,8.38906689453125,-0.01466076634824276,0.014049900695681572,0.0708603709936142
1760285891686066700,8.399066650390624,-0.014049900695681572,0.022602014243602753,0.07757988572120667
1760285891696066800,8.40906689453125,-0.018325956538319588,0.02015855349600315,0.07635815441608429
1760285891706066700,8.419066650390626,-0.02076941914856434,0.009162978269159794,0.06780604273080826
1760285891716066800,8.42906689453125,-0.019547687843441963,0.006108652334660292,0.05925392732024193
1760285891726066700,8.439066650390625,-0.014049900695681572,0.02321287989616394,0.04459316283464432
1760285891736066800,8.44906689453125,-0.014049900695681572,0.03481931984424591,0.03787364438176155
1760285891746066700,8.459066650390625,-0.01466076634824276,0.03420845419168472,0.02932153269648552
1760285891756066800,8.46906689453125,-0.015271631069481373,0.02321287989616394,0.02076941914856434
1760285891766066700,8.479066650390624,-0.018936822190880775,0.004886921960860491,0.01038470957428217
1760285891776066800,8.48906689453125,-0.02382374368607998,-0.01466076634824276,0.0006108652451075613
1760285891786066700,8.499066650390626,-0.027488935738801956,-0.02871066704392433,-0.005497787147760391
1760285891796066800,8.50906689453125,-0.02382374368607998,-0.029932396486401558,0.0006108652451075613
1760285891806066700,8.519066650390625,-0.016493361443281174,-0.018936822190880775,0.009773843921720982
1760285891816066800,8.52906689453125,0.0006108652451075613,-0.003054326167330146,0.022602014243602753
1760285891826066700,8.539066650390625,0.019547687843441963,0.006719517521560192,0.03298672288656235
1760285891836066800,8.54906689453125,0.03481931984424591,0.01038470957428217,0.045204028487205505
1760285891846066700,8.559066650390625,0.04153883829712868,0.01038470957428217,0.05253441259264946
1760285891856066800,8.56906689453125,0.03848451003432274,0.010995574295520782,0.05314527451992035
1760285891866066700,8.579066650390626,0.02687807008624077,0.01710422709584236,0.0354301854968071
1760285891876066800,8.58906689453125,0.02015855349600315,0.021380282938480377,0.01038470957428217
1760285891886066700,8.599066650390625,0.015882495790719986,0.0403171069920063,-0.013439035043120384
1760285891896066800,8.60906689453125,0.01771509274840355,0.05803219974040985,-0.039095375686883926
1760285891906066700,8.619066650390625,0.015271631069481373,0.05375614017248154,-0.048258353024721146
1760285891916066800,8.62906689453125,0.006719517521560192,0.024434609338641167,-0.042760565876960754
1760285891926066700,8.639066650390625,-0.0012217304902151227,-0.004886921960860491,-0.025656340643763542
1760285891936066800,8.64906689453125,-0.0024434609804302454,-0.018936822190880775,0.012828170321881771
1760285891946066700,8.659066650390624,0.0024434609804302454,-0.014049900695681572,0.03420845419168472
1760285891956066800,8.66906689453125,0.010995574295520782,0.0006108652451075613,0.04581489413976669
1760285891966066700,8.679066650390626,0.014049900695681572,0.013439035043120384,0.04948008432984352
1760285891976066800,8.68906689453125,0.012217304669320583,0.009162978269159794,0.04948008432984352
1760285891986066700,8.699066650390625,0.003054326167330146,-0.004886921960860491,0.04703662544488907
1760285891996066800,8.70906689453125,-0.006719517521560192,-0.01771509274840355,0.039706241339445114
1760285892006066700,8.719066650390625,-0.015882495790719986,-0.03298672288656235,0.03481931984424591
1760285892016066800,8.72906689453125,-0.021380282938480377,-0.039706241339445114,0.03420845419168472
1760285892026066700,8.739066650390624,-0.02321287989616394,-0.039706241339445114,0.031154127791523933
1760285892036066800,8.74906689453125,-0.02076941914856434,-0.031154127791523933,0.02626720629632473
1760285892046066700,8.759066650390626,-0.012217304669320583,-0.01771509274840355,0.024434609338641167
1760285892056066800,8.76906689453125,0.0006108652451075613,-0.02015855349600315,0.02321287989616394
1760285892066066700,8.779066650390625,0.009162978269159794,-0.03237585723400116,0.02382374368607998
1760285892076066800,8.78906689453125,0.01466076634824276,-0.06352998316287994,0.02932153269648552
1760285892086066700,8.799066650390625,0.012828170321881771,-0.07513642311096191,0.007941247895359993
1760285892096066800,8.80906689453125,0.03848451003432274,0.005497787147760391,-0.19303341209888458
1760285892106066700,8.819066650390624,0.018325956538319588,0.14844025671482086,-0.25045475363731384
1760285892116066800,8.82906689453125,0.024434609338641167,0.16982053220272064,-0.30482175946235657
1760285892126066700,8.839066650390626,0.013439035043120384,0.14782938361167908,-0.33292156457901
1760285892136066800,8.84906689453125,-0.059864792972803116,0.16859880089759827,-0.29504790902137756
1760285892146066700,8.859066650390625,-0.17348572611808777,0.18020524084568024,-0.20952677726745605
1760285892156066800,8.86906689453125,-0.20341812074184418,0.19975294172763824,-0.17348572611808777
1760285892166066700,8.879066650390625,-0.20402899384498596,0.2223549485206604,-0.14294247329235077
1760285892176066800,8.88906689453125,-0.19120082259178162,0.2217440903186798,-0.10873401165008545
1760285892186066700,8.899066650390624,-0.16737708449363708,0.19792033731937408,-0.07452555745840073
1760285892196066800,8.90906689453125,-0.14049901068210602,0.1313360333442688,-0.042760565876960754
1760285892206066700,8.919066650390626,-0.11301007121801376,0.06414084881544113,-0.005497787147760391
1760285892216066800,8.92906689453125,-0.07330382615327835,0.00366519158706069,0.0354301854968071
1760285892226066700,8.939066650390625,-0.05864306539297104,-0.025656340643763542,0.03420845419168472
1760285892236066800,8.94906689453125,-0.06108652427792549,-0.04948008432984352,0.02015855349600315
1760285892246066700,8.959066650390625,-0.07880161702632904,-0.0659734457731247,0.0006108652451075613
1760285892256066800,8.96906689453125,-0.08857546001672745,-0.07330382615327835,-0.014049900695681572
1760285892266066700,8.979066650390624,-0.07757988572120667,-0.05314527451992035,-0.03726277872920036
1760285892276066800,8.98906689453125,-0.05742133408784866,-0.030543262138962746,-0.05803219974040985
1760285892286066700,8.999066650390626,-0.028099801391363144,-0.01771509274840355,-0.06658431142568588
1760285892296066800,9.00906689453125,-0.013439035043120384,-0.01710422709584236,-0.05619960278272629
1760285892306066700,9.019066650390625,0.0006108652451075613,-0.021991148591041565,-0.02687807008624077
1760285892316066800,9.02906689453125,0.015271631069481373,-0.03481931984424591,0.016493361443281174
1760285892326066700,9.039066650390625,0.04214970022439957,-0.04398229718208313,0.06169738993048668
1760285892336066800,9.04906689453125,0.06902777403593063,-0.029932396486401558,0.09957103431224823
1760285892346066700,9.059066650390625,0.0861319974064827,-0.00733038317412138,0.13316862285137177
1760285892356066800,9.06906689453125,0.07757988572120667,-0.015882495790719986,0.13011430203914642
1760285892366066700,9.079066650390626,0.06108652427792549,-0.027488935738801956,0.10445795953273773
1760285892376066800,9.08906689453125,0.04153883829712868,-0.04459316283464432,0.06780604273080826
1760285892386066700,9.099066650390625,0.02015855349600315,-0.0659734457731247,0.036651913076639175
1760285892396066800,9.10906689453125,0.001832595793530345,-0.07819075137376785,0.018325956538319588
1760285892406066700,9.119066650390625,-0.00855211354792118,-0.07635815441608429,0.010995574295520782
1760285892416066800,9.12906689453125,-0.018936822190880775,-0.05619960278272629,0.021991148591041565
1760285892426066700,9.139066650390625,-0.018936822190880775,-0.03420845419168472,0.031154127791523933
1760285892436066800,9.14906689453125,-0.009773843921720982,-0.009162978269159794,0.03787364438176155
1760285892446066700,9.159066650390624,0.00427605677396059,0.005497787147760391,0.04398229718208313
1760285892456066800,9.16906689453125,0.01771509274840355,0.00366519158706069,0.04948008432984352
1760285892466066700,9.179066650390626,0.03298672288656235,-0.009773843921720982,0.0555887371301651
1760285892476066800,9.18906689453125,0.04092797264456749,-0.021991148591041565,0.06230825558304787
1760285892486066700,9.199066650390625,0.039706241339445114,-0.018325956538319588,0.07147123664617538
1760285892496066800,9.20906689453125,0.030543262138962746,-0.01710422709584236,0.07330382615327835
1760285892506066700,9.219066650390625,0.018325956538319588,-0.018936822190880775,0.07208210229873657
1760285892516066800,9.22906689453125,0.01160643994808197,-0.030543262138962746,0.05925392732024193
1760285892526066700,9.239066650390624,0.00733038317412138,-0.03787364438176155,0.048258353024721146
1760285892536066800,9.24906689453125,0.0024434609804302454,-0.04398229718208313,0.03726277872920036
1760285892546066700,9.259066650390626,-0.003054326167330146,-0.05253441259264946,0.031154127791523933
1760285892556066800,9.26906689453125,0.00366519158706069,-0.042760565876960754,0.01771509274840355
1760285892566066700,9.279066650390625,0.014049900695681572,-0.03176499158143997,0.0006108652451075613
1760285892576066800,9.28906689453125,0.021380282938480377,-0.031154127791523933,-0.013439035043120384
1760285892586066700,9.299066650390625,0.02871066704392433,-0.03787364438176155,-0.018936822190880775
1760285892596066800,9.30906689453125,0.036041051149368286,-0.059864792972803116,-0.009162978269159794
1760285892606066700,9.319066650390624,0.033597588539123535,-0.07696902006864548,0.012828170321881771
1760285892616066800,9.32906689453125,0.02871066704392433,-0.08124507963657379,0.03237585723400116
1760285892626066700,9.339066650390626,0.02871066704392433,-0.06658431142568588,0.0555887371301651
1760285892636066800,9.34906689453125,0.03176499158143997,-0.05742133408784866,0.05925392732024193
1760285892646066700,9.359066650390625,0.04214970022439957,-0.06108652427792549,0.06169738993048668
1760285892656066800,9.36906689453125,0.06291911751031876,-0.08307767659425735,0.05375614017248154
1760285892666066700,9.379066650390625,0.07391469180583954,-0.09773843735456467,0.0354301854968071
1760285892676066800,9.38906689453125,0.06963863968849182,-0.10934487730264664,0.012828170321881771
1760285892686066700,9.399066650390624,0.06536258012056351,-0.11667526513338089,-0.009773843921720982
1760285892696066800,9.40906689453125,0.06841690838336945,-0.12034045159816742,-0.02076941914856434
1760285892706066700,9.419066650390626,0.07147123664617538,-0.1111774742603302,-0.010995574295520782
1760285892716066800,9.42906689453125,0.06291911751031876,-0.0959058403968811,0.001832595793530345
1760285892726066700,9.439066650390625,0.05497787147760391,-0.07452555745840073,0.025656340643763542
1760285892736066800,9.44906689453125,0.054367005825042725,-0.0507018156349659,0.03481931984424591
1760285892746066700,9.459066650390625,0.042760565876960754,-0.01038470957428217,0.03787364438176155
1760285892756066800,9.46906689453125,0.036651913076639175,0.007941247895359993,0.03176499158143997
1760285892766066700,9.479066650390624,0.03237585723400116,-0.001832595793530345,0.012217304669320583
1760285892776066800,9.48906689453125,0.025656340643763542,0.007941247895359993,-0.006719517521560192
1760285892786066700,9.499066650390626,0.018325956538319588,0.03176499158143997,-0.028099801391363144
1760285892796066800,9.50906689453125,0.01710422709584236,0.05742133408784866,-0.04886921867728233
1760285892806066700,9.519066650390625,0.021380282938480377,0.0659734457731247,-0.06169738993048668
1760285892816066800,9.52906689453125,0.029932396486401558,0.0708603709936142,-0.0659734457731247
1760285892826066700,9.539066650390625,0.03481931984424591,0.07208210229873657,-0.0659734457731247
1760285892836066800,9.54906689453125,0.03481931984424591,0.06108652427792549,-0.06291911751031876
1760285892846066700,9.559066650390625,0.02871066704392433,0.04398229718208313,-0.06169738993048668
1760285892856066800,9.56906689453125,0.018936822190880775,0.02382374368607998,-0.05497787147760391
1760285892866066700,9.579066650390626,0.01038470957428217,0.0024434609804302454,-0.04581489413976669
1760285892876066800,9.58906689453125,0.007941247895359993,-0.014049900695681572,-0.028099801391363144
1760285892886066700,9.599066650390625,0.006108652334660292,-0.014049900695681572,-0.009162978269159794
1760285892896066800,9.60906689453125,0.007941247895359993,-0.007941247895359993,0.01038470957428217
1760285892906066700,9.619066650390625,0.015271631069481373,-0.012828170321881771,0.031154127791523933
1760285892916066800,9.62906689453125,0.022602014243602753,-0.027488935738801956,0.0354301854968071
1760285892926066700,9.639066650390625,0.027488935738801956,-0.03481931984424591,0.02932153269648552
1760285892936066800,9.64906689453125,0.03237585723400116,-0.02932153269648552,0.01771509274840355
1760285892946066700,9.659066650390624,0.033597588539123535,-0.015271631069481373,0.012217304669320583
1760285892956066800,9.66906689453125,0.02687807008624077,-0.007941247895359993,0.013439035043120384
1760285892966066700,9.679066650390626,0.021380282938480377,-0.00366519158706069,0.014049900695681572
1760285892976066800,9.68906689453125,0.02382374368607998,-0.001832595793530345,0.003054326167330146
1760285892986066700,9.699066650390625,0.029932396486401558,-0.007941247895359993,0
1760285892996066800,9.70906689453125,0.03726277872920036,-0.01710422709584236,-0.0006108652451075613
1760285893006066700,9.719066650390625,0.042760565876960754,-0.02321287989616394,-0.0006108652451075613
1760285893016066800,9.72906689453125,0.04886921867728233,-0.02687807008624077,-0.00427605677396059
1760285893026066700,9.739066650390624,0.0555887371301651,-0.02382374368607998,-0.009162978269159794
1760285893036066800,9.74906689453125,0.0555887371301651,-0.022602014243602753,0
1760285893046066700,9.759066650390626,0.04459316283464432,-0.054367005825042725,0.013439035043120384
1760285893056066800,9.76906689453125,0.029932396486401558,-0.09834930300712585,0.02687807008624077
1760285893066066700,9.779066650390625,0.0403171069920063,-0.07696902006864548,0.02076941914856434
1760285893076066800,9.78906689453125,0.05192354694008827,-0.04214970022439957,0.014049900695681572
1760285893086066700,9.799066650390625,0.05803219974040985,-0.03298672288656235,0.012217304669320583
1760285893096066800,9.80906689453125,0.0555887371301651,-0.025045474991202354,0.007941247895359993
1760285893106066700,9.819066650390624,0.051312681287527084,0.015271631069481373,-0.00733038317412138
1760285893116066800,9.82906689453125,0.05497787147760391,0.027488935738801956,-0.015882495790719986
1760285893126066700,9.839066650390626,0.054367005825042725,0.022602014243602753,-0.01710422709584236
1760285893136066800,9.84906689453125,0.05192354694008827,0.006108652334660292,-0.010995574295520782
1760285893146066700,9.859066650390625,0.03726277872920036,-0.03420845419168472,0.0006108652451075613
1760285893156066800,9.86906689453125,0.02076941914856434,-0.05253441259264946,0.016493361443281174
1760285893166066700,9.879066650390625,0.02321287989616394,-0.02015855349600315,0.012217304669320583
1760285893176066800,9.88906689453125,0.042760565876960754,0.01771509274840355,-0.01038470957428217
1760285893186066700,9.899066650390624,0.05009094998240471,0.006108652334660292,-0.01710422709584236
1760285893196066800,9.90906689453125,0.04764748737215996,-0.005497787147760391,-0.012217304669320583
1760285893206066700,9.919066650390626,0.039706241339445114,-0.018325956538319588,-0.00366519158706069
1760285893216066800,9.92906689453125,0.029932396486401558,-0.03298672288656235,0.0006108652451075613
1760285893226066700,9.939066650390625,0.028099801391363144,-0.03298672288656235,-0.006108652334660292
1760285893236066800,9.94906689453125,0.029932396486401558,-0.01771509274840355,-0.01771509274840355
1760285893246066700,9.959066650390625,0.027488935738801956,-0.0012217304902151227,-0.029932396486401558
1760285893256066800,9.96906689453125,0.02871066704392433,0.006108652334660292,-0.033597588539123535
1760285893266066700,9.979066650390624,0.036041051149368286,0.009162978269159794,-0.036041051149368286
1760285893276066800,9.98906689453125,0.036651913076639175,-0.0024434609804302454,-0.02687807008624077
1760285893286066700,9.999066650390626,0.03237585723400116,-0.012217304669320583,-0.007941247895359993
1760285893296066800,10.00906689453125,0.030543262138962746,-0.0006108652451075613,0.00427605677396059
1760285893306066700,10.019066650390625,0.029932396486401558,0.01038470957428217,0.005497787147760391
1760285893316066800,10.02906689453125,0.02015855349600315,0.001832595793530345,-0.007941247895359993
1760285893326066700,10.039066650390625,0.015882495790719986,-0.00366519158706069,-0.018325956538319588
1760285893336066800,10.04906689453125,0.013439035043120384,-0.0024434609804302454,-0.02626720629632473
1760285893346066700,10.059066650390625,0.00427605677396059,0.001832595793530345,-0.029932396486401558
1760285893356066800,10.06906689453125,-0.004886921960860491,0.0024434609804302454,-0.029932396486401558
1760285893366066700,10.079066650390626,-0.014049900695681572,-0.001832595793530345,-0.021991148591041565
1760285893376066800,10.08906689453125,-0.01771509274840355,-0.009773843921720982,-0.006108652334660292
1760285893386066700,10.099066650390625,-0.009162978269159794,-0.01160643994808197,0.02932153269648552
1760285893396066800,10.10906689453125,-0.0024434609804302454,-0.003054326167330146,0.0403171069920063
1760285893406066700,10.119066650390625,0.004886921960860491,0,0.03176499158143997
1760285893416066800,10.12906689453125,0.010995574295520782,-0.004886921960860491,0.01038470957428217
1760285893426066700,10.139066650390625,0.012828170321881771,-0.015271631069481373,-0.010995574295520782
1760285893436066800,10.14906689453125,0.010995574295520782,-0.03176499158143997,-0.02687807008624077
1760285893446066700,10.159066650390624,0.00855211354792118,-0.051312681287527084,-0.025656340643763542
1760285893456066800,10.16906689453125,0.003054326167330146,-0.07024950534105301,0.00733038317412138
1760285893466066700,10.179066650390626,0.003054326167330146,-0.0757472887635231,0.039095375686883926
1760285893476066800,10.18906689453125,0.0024434609804302454,-0.07819075137376785,0.06536258012056351
1760285893486066700,10.199066650390625,0,-0.08185594528913498,0.0806342139840126
1760285893496066800,10.20906689453125,-0.00366519158706069,-0.09285151958465576,0.09224065393209457
1760285893506066700,10.219066650390625,-0.00427605677396059,-0.10384709388017654,0.1007927656173706
1760285893516066800,10.22906689453125,0.0024434609804302454,-0.10690141469240189,0.10934487730264664
1760285893526066700,10.239066650390624,0.031154127791523933,-0.07513642311096191,0.12461651116609573
1760285893536066800,10.24906689453125,0.04886921867728233,-0.07147123664617538,0.1270599663257599
1760285893546066700,10.259066650390626,0.05375614017248154,-0.06291911751031876,0.10018189996480942
1760285893556066800,10.26906689453125,0.04337143152952194,-0.051312681287527084,0.05619960278272629
1760285893566066700,10.279066650390625,0.02382374368607998,-0.06230825558304787,0.012828170321881771
1760285893576066800,10.28906689453125,0.009162978269159794,-0.07819075137376785,-0.016493361443281174
1760285893586066700,10.299066650390625,0.00427605677396059,-0.07391469180583954,-0.025656340643763542
1760285893596066800,10.30906689453125,0.005497787147760391,-0.054367005825042725,-0.00366519158706069
1760285893606066700,10.319066650390624,0.0024434609804302454,-0.04214970022439957,0.02321287989616394
1760285893616066800,10.32906689453125,0,-0.02687807008624077,0.04764748737215996
1760285893626066700,10.339066650390626,-0.003054326167330146,-0.01466076634824276,0.06291911751031876
1760285893636066800,10.34906689453125,-0.009162978269159794,-0.012217304669320583,0.07024950534105301
1760285893646066700,10.359066650390625,-0.009162978269159794,-0.001832595793530345,0.07330382615327835
1760285893656066800,10.36906689453125,-0.0012217304902151227,0.012828170321881771,0.06414084881544113
1760285893666066700,10.379066650390625,0.00855211354792118,0.01710422709584236,0.03726277872920036
1760285893686066700,10.399066650390624,0.02015855349600315,0.021991148591041565,-0.006719517521560192
1760285893696066800,10.40906689453125,0.02687807008624077,0.01771509274840355,-0.025045474991202354
1760285893716066800,10.42906689453125,0.02932153269648552,0.00855211354792118,-0.03420845419168472
1760285893726066700,10.439066650390625,0.01710422709584236,0.006719517521560192,-0.009162978269159794
1760285893736066800,10.44906689453125,0.003054326167330146,0.00427605677396059,0.012828170321881771
1760285893746066700,10.459066650390625,-0.009773843921720982,0.005497787147760391,0.029932396486401558
1760285893756066800,10.46906689453125,-0.013439035043120384,0.003054326167330146,0.03420845419168472
1760285893766066700,10.479066650390624,-0.006108652334660292,-0.0024434609804302454,0.025656340643763542
1760285893776066800,10.48906689453125,0.006108652334660292,-0.00366519158706069,0.009162978269159794
1760285893786066700,10.499066650390626,0.01710422709584236,0.007941247895359993,-0.006108652334660292
1760285893796066800,10.50906689453125,0.01771509274840355,0.0354301854968071,-0.012828170321881771
1760285893806066700,10.519066650390625,0.007941247895359993,0.05375614017248154,-0.005497787147760391
1760285893826066700,10.539066650390625,-0.014049900695681572,0.05864306539297104,0.01160643994808197
1760285893836066800,10.54906689453125,-0.014049900695681572,0.042760565876960754,0.012828170321881771
1760285893856066800,10.56906689453125,0.00366519158706069,0.010995574295520782,0.0024434609804302454
1760285893866066700,10.579066650390626,0.024434609338641167,0.02687807008624077,-0.00855211354792118
1760285893876066800,10.58906689453125,0.03787364438176155,0.03420845419168472,-0.013439035043120384
1760285893886066700,10.599066650390625,0.04337143152952194,0.027488935738801956,-0.01710422709584236
1760285893896066800,10.60906689453125,0.04581489413976669,0.018325956538319588,-0.01466076634824276
1760285893906066700,10.619066650390625,0.036041051149368286,-0.01466076634824276,-0.012828170321881771
1760285893916066800,10.62906689453125,0.022602014243602753,-0.042760565876960754,-0.01160643994808197
1760285893926066700,10.639066650390625,0.012828170321881771,-0.02015855349600315,-0.02626720629632473
1760285893936066800,10.64906689453125,-0.015271631069481373,0.03481931984424591,-0.09773843735456467
1760285893946066700,10.659066650390624,-0.009773843921720982,-0.01160643994808197,-0.08796459436416626
1760285893956066800,10.66906689453125,-0.01038470957428217,-0.03726277872920036,-0.09773843735456467
1760285893966066700,10.679066650390626,-0.015271631069481373,-0.0555887371301651,-0.1111774742603302
1760285893976066800,10.68906689453125,-0.018325956538319588,-0.08307767659425735,-0.10812314599752426
1760285893986066700,10.699066650390625,-0.019547687843441963,-0.08918632566928864,-0.09040805697441101
1760285893996066800,10.70906689453125,-0.018936822190880775,-0.0806342139840126,-0.06658431142568588
1760285894006066700,10.719066650390625,-0.014049900695681572,-0.06352998316287994,-0.01771509274840355
1760285894016066800,10.72906689453125,-0.009773843921720982,-0.02932153269648552,0.010995574295520782
1760285894026066700,10.739066650390624,-0.00366519158706069,0.01038470957428217,0.033597588539123535
1760285894036066800,10.74906689453125,-0.001832595793530345,0.02871066704392433,0.042760565876960754
1760285894046066700,10.759066650390626,0,0.019547687843441963,0.03848451003432274
1760285894056066800,10.76906689453125,-0.0012217304902151227,0.0006108652451075613,0.03298672288656235
1760285894066066700,10.779066650390625,0.0006108652451075613,-0.021991148591041565,0.024434609338641167
1760285894076066800,10.78906689453125,0.006719517521560192,-0.03848451003432274,0.00427605677396059
1760285894086066700,10.799066650390625,0.005497787147760391,-0.02871066704392433,-0.00733038317412138
1760285894096066800,10.80906689453125,0.004886921960860491,-0.014049900695681572,-0.01710422709584236
1760285894106066700,10.819066650390624,0.003054326167330146,0.0006108652451075613,-0.022602014243602753
1760285894116066800,10.82906689453125,0.007941247895359993,0.010995574295520782,-0.025656340643763542
1760285894126066700,10.839066650390626,0.010995574295520782,0.010995574295520782,-0.028099801391363144
1760285894136066800,10.84906689453125,0.007941247895359993,0.00733038317412138,-0.02687807008624077
1760285894146066700,10.859066650390625,0.005497787147760391,0.01466076634824276,-0.018325956538319588
1760285894156066800,10.86906689453125,0.00855211354792118,0.03420845419168472,-0.01466076634824276
1760285894166066700,10.879066650390625,0.014049900695681572,0.045204028487205505,-0.01466076634824276
1760285894176066800,10.88906689453125,0.019547687843441963,0.04337143152952194,-0.01038470957428217
1760285894186066700,10.899066650390624,0.01771509274840355,0.039706241339445114,-0.00733038317412138
1760285894196066800,10.90906689453125,0.009162978269159794,0.04092797264456749,-0.005497787147760391
1760285894206066700,10.919066650390626,-0.0012217304902151227,0.05009094998240471,-0.006719517521560192
1760285894216066800,10.92906689453125,-0.00427605677396059,0.07147123664617538,-0.027488935738801956
1760285894226066700,10.939066650390625,-0.0012217304902151227,0.060475658625364304,-0.04153883829712868
1760285894236066800,10.94906689453125,0.003054326167330146,0.04642575979232788,-0.05742133408784866
1760285894246066700,10.959066650390625,0.00733038317412138,0.04948008432984352,-0.07391469180583954
1760285894256066800,10.96906689453125,0.00366519158706069,0.056810468435287476,-0.0806342139840126
1760285894266066700,10.979066650390624,-0.00855211354792118,0.05253441259264946,-0.06780604273080826
1760285894276066800,10.98906689453125,-0.022602014243602753,0.04948008432984352,-0.042760565876960754
1760285894286066700,10.999066650390626,-0.036041051149368286,0.05619960278272629,-0.003054326167330146
1760285894296066800,11.00906689453125,-0.04459316283464432,0.04459316283464432,0.021991148591041565
1760285894306066700,11.019066650390625,-0.0555887371301651,0.02382374368607998,0.04153883829712868
1760285894316066800,11.02906689453125,-0.06230825558304787,0.007941247895359993,0.06169738993048668
1760285894326066700,11.039066650390625,-0.06169738993048668,0.0024434609804302454,0.0806342139840126
1760285894336066800,11.04906689453125,-0.05619960278272629,0,0.09712757170200348
1760285894346066700,11.059066650390625,-0.05009094998240471,0.0006108652451075613,0.10384709388017654
1760285894356066800,11.06906689453125,-0.04642575979232788,0.003054326167330146,0.09896016865968704
1760285894366066700,11.079066650390626,-0.05253441259264946,0.006108652334660292,0.08246681094169617
1760285894376066800,11.08906689453125,-0.06536258012056351,0.01466076634824276,0.05253441259264946
1760285894386066700,11.099066650390625,-0.06536258012056351,-0.0012217304902151227,0.01710422709584236
1760285894396066800,11.10906689453125,-0.059864792972803116,-0.03787364438176155,-0.010995574295520782
1760285894406066700,11.119066650390625,-0.05253441259264946,-0.07208210229873657,-0.02321287989616394
1760285894416066800,11.12906689453125,-0.036041051149368286,-0.08857546001672745,-0.02382374368607998
1760285894426066700,11.139066650390625,-0.01771509274840355,-0.08246681094169617,-0.006719517521560192
1760285894436066800,11.14906689453125,0.00366519158706069,-0.07819075137376785,0.015271631069481373
1760285894446066700,11.159066650390624,0.018936822190880775,-0.05375614017248154,0.036041051149368286
1760285894456066800,11.16906689453125,0.030543262138962746,-0.027488935738801956,0.048258353024721146
1760285894466066700,11.179066650390626,0.039095375686883926,-0.014049900695681572,0.05314527451992035
1760285894476066800,11.18906689453125,0.048258353024721146,-0.010995574295520782,0.05375614017248154
1760285894486066700,11.199066650390625,0.051312681287527084,-0.01038470957428217,0.04214970022439957
1760285894496066800,11.20906689453125,0.03787364438176155,-0.01771509274840355,0.03481931984424591
1760285894506066700,11.219066650390625,0.01710422709584236,-0.02321287989616394,0.030543262138962746
1760285894516066800,11.22906689453125,0.0012217304902151227,-0.025045474991202354,0.02687807008624077
1760285894526066700,11.239066650390624,-0.00366519158706069,-0.019547687843441963,0.02321287989616394
1760285894536066800,11.24906689453125,-0.003054326167330146,-0.014049900695681572,0.022602014243602753
1760285894546066700,11.259066650390626,0.0012217304902151227,0.0012217304902151227,0.025656340643763542
1760285894556066800,11.26906689453125,0.012217304669320583,0.01771509274840355,0.02932153269648552
1760285894566066700,11.279066650390625,0.013439035043120384,0.01038470957428217,0.029932396486401558
1760285894576066800,11.28906689453125,0.009162978269159794,0.00427605677396059,0.02932153269648552
1760285894586066700,11.299066650390625,0.007941247895359993,-0.0006108652451075613,0.02871066704392433
1760285894596066800,11.30906689453125,0.003054326167330146,0.0012217304902151227,0.02626720629632473
1760285894606066700,11.319066650390624,-0.006719517521560192,0.007941247895359993,0.021991148591041565
1760285894616066800,11.32906689453125,-0.018325956538319588,0.009162978269159794,0.010995574295520782
1760285894626066700,11.339066650390626,-0.03176499158143997,-0.00427605677396059,-0.010995574295520782
1760285894636066800,11.34906689453125,-0.03420845419168472,-0.018325956538319588,-0.024434609338641167
1760285894646066700,11.359066650390625,-0.02932153269648552,-0.02626720629632473,-0.02687807008624077
1760285894656066800,11.36906689453125,-0.01771509274840355,-0.030543262138962746,-0.018325956538319588
1760285894666066700,11.379066650390625,-0.006108652334660292,-0.036041051149368286,-0.0024434609804302454
1760285894676066800,11.38906689453125,0.0024434609804302454,-0.033597588539123535,0.014049900695681572
1760285894686066700,11.399066650390624,0.003054326167330146,-0.024434609338641167,0.028099801391363144
1760285894696066800,11.40906689453125,-0.006108652334660292,-0.003054326167330146,0.036041051149368286
1760285894706066700,11.419066650390626,-0.01160643994808197,0.01710422709584236,0.03787364438176155
1760285894716066800,11.42906689453125,-0.014049900695681572,0.03237585723400116,0.031154127791523933
1760285894726066700,11.439066650390625,-0.013439035043120384,0.03298672288656235,0.018325956538319588
1760285894736066800,11.44906689453125,-0.012217304669320583,0.013439035043120384,0
1760285894746066700,11.459066650390625,-0.009773843921720982,-0.019547687843441963,-0.012828170321881771
1760285894756066800,11.46906689453125,-0.00733038317412138,-0.04764748737215996,-0.012828170321881771
1760285894766066700,11.479066650390624,-0.00733038317412138,-0.05864306539297104,0.015882495790719986
1760285894776066800,11.48906689453125,-0.00855211354792118,-0.04459316283464432,0.03787364438176155
1760285894786066700,11.499066650390626,-0.00733038317412138,-0.015271631069481373,0.05253441259264946
1760285894796066800,11.50906689453125,-0.012828170321881771,0.06414084881544113,0.039706241339445114
1760285894806066700,11.519066650390625,-0.021991148591041565,0.21135938167572021,-0.06414084881544113
1760285894816066800,11.52906689453125,-0.030543262138962746,0.06475171446800232,-0.08491026610136032
1760285894826066700,11.539066650390625,-0.03420845419168472,0.03848451003432274,-0.08491026610136032
1760285894836066800,11.54906689453125,0.01038470957428217,0.04398229718208313,-0.09407325088977814
1760285894846066700,11.559066650390625,0.028099801391363144,0,-0.08185594528913498
1760285894856066800,11.56906689453125,0.03420845419168472,0.02687807008624077,-0.06902777403593063
1760285894866066700,11.579066650390626,0.03481931984424591,0.056810468435287476,-0.048258353024721146
1760285894876066800,11.58906689453125,0.02871066704392433,0.05253441259264946,-0.02015855349600315
1760285894886066700,11.599066650390625,0.01771509274840355,0.045204028487205505,0.004886921960860491
1760285894896066800,11.60906689453125,0.00733038317412138,0.04764748737215996,0.015882495790719986
1760285894906066700,11.619066650390625,0.0006108652451075613,0.04214970022439957,0.009162978269159794
1760285894916066800,11.62906689453125,0.0012217304902151227,0.01710422709584236,-0.00855211354792118
1760285894926066700,11.639066650390625,-0.001832595793530345,0.004886921960860491,-0.025656340643763542
1760285894936066800,11.64906689453125,-0.00366519158706069,0.006108652334660292,-0.0403171069920063
1760285894946066700,11.659066650390624,-0.00427605677396059,0.009773843921720982,-0.042760565876960754
1760285894956066800,11.66906689453125,-0.0012217304902151227,0.00855211354792118,-0.03237585723400116
1760285894966066700,11.679066650390626,0.003054326167330146,-0.001832595793530345,-0.012217304669320583
1760285894976066800,11.68906689453125,0.009162978269159794,-0.001832595793530345,0.021991148591041565
1760285894986066700,11.699066650390625,0.01160643994808197,-0.00366519158706069,0.02932153269648552
1760285894996066800,11.70906689453125,0.00855211354792118,-0.006719517521560192,0.024434609338641167
1760285895006066700,11.719066650390625,0.006108652334660292,-0.007941247895359993,0.01466076634824276
1760285895016066800,11.72906689453125,0.006719517521560192,-0.009162978269159794,0.01038470957428217
1760285895026066700,11.739066650390624,0.01466076634824276,-0.00733038317412138,0.00855211354792118
1760285895036066800,11.74906689453125,0.025045474991202354,-0.006108652334660292,0.010995574295520782
1760285895046066700,11.759066650390626,0.03298672288656235,-0.010995574295520782,0.02871066704392433
1760285895056066800,11.76906689453125,0.02932153269648552,-0.015882495790719986,0.04642575979232788
1760285895066066700,11.779066650390625,0.01710422709584236,-0.022602014243602753,0.060475658625364304
1760285895076066800,11.78906689453125,-0.0006108652451075613,-0.03176499158143997,0.07452555745840073
1760285895086066700,11.799066650390625,-0.013439035043120384,-0.036651913076639175,0.07880161702632904
1760285895096066800,11.80906689453125,-0.010995574295520782,-0.03726277872920036,0.07452555745840073
1760285895106066700,11.819066650390624,0.00855211354792118,-0.019547687843441963,0.05375614017248154
1760285895116066800,11.82906689453125,0.021380282938480377,-0.021380282938480377,0.03848451003432274
1760285895126066700,11.839066650390626,0.027488935738801956,-0.042760565876960754,0.02687807008624077
1760285895136066800,11.84906689453125,0.030543262138962746,-0.0659734457731247,0.02871066704392433
1760285895146066700,11.859066650390625,0.031154127791523933,-0.07880161702632904,0.03848451003432274
1760285895156066800,11.86906689453125,0.029932396486401558,-0.07635815441608429,0.04948008432984352
1760285895166066700,11.879066650390625,0.02871066704392433,-0.0507018156349659,0.05864306539297104
1760285895176066800,11.88906689453125,0.018325956538319588,-0.004886921960860491,0.07391469180583954
1760285895186066700,11.899066650390624,0.00427605677396059,0.0012217304902151227,0.07941248267889023
1760285895196066800,11.90906689453125,-0.006719517521560192,-0.013439035043120384,0.07513642311096191
1760285895206066700,11.919066650390626,-0.00733038317412138,-0.027488935738801956,0.05803219974040985
1760285895216066800,11.92906689453125,0.0006108652451075613,-0.03298672288656235,0.031154127791523933
1760285895226066700,11.939066650390625,0.01038470957428217,-0.030543262138962746,0.00366519158706069
1760285895236066800,11.94906689453125,0.01710422709584236,-0.01160643994808197,-0.021991148591041565
1760285895246066700,11.959066650390625,0.022602014243602753,0.014049900695681572,-0.04581489413976669
1760285895256066800,11.96906689453125,0.021991148591041565,0.01466076634824276,-0.04886921867728233
1760285895266066700,11.979066650390624,0.018936822190880775,0.007941247895359993,-0.04581489413976669
1760285895276066800,11.98906689453125,0.015882495790719986,0.0006108652451075613,-0.04581489413976669
1760285895286066700,11.999066650390626,0.013439035043120384,-0.005497787147760391,-0.042760565876960754
1760285895296066800,12.00906689453125,0.01466076634824276,-0.0012217304902151227,-0.03787364438176155
1760285895306066700,12.019066650390625,0.019547687843441963,0.018325956538319588,-0.031154127791523933
1760285895316066800,12.02906689453125,0.028099801391363144,0.04642575979232788,-0.02626720629632473
1760285895326066700,12.039066650390625,0.030543262138962746,0.04398229718208313,-0.029932396486401558
1760285895336066800,12.04906689453125,0.02687807008624077,0.02932153269648552,-0.033597588539123535
1760285895346066700,12.059066650390625,0.019547687843441963,0.00366519158706069,-0.03787364438176155
1760285895356066800,12.06906689453125,0.012217304669320583,-0.016493361443281174,-0.036041051149368286
1760285895366066700,12.079066650390626,0.006108652334660292,-0.016493361443281174,-0.030543262138962746
1760285895376066800,12.08906689453125,0.001832595793530345,-0.004886921960860491,-0.02382374368607998
1760285895386066700,12.099066650390625,-0.0006108652451075613,0.00366519158706069,-0.01771509274840355
1760285895396066800,12.10906689453125,0.003054326167330146,0,-0.01771509274840355
1760285895406066700,12.119066650390625,0.007941247895359993,-0.00366519158706069,-0.01710422709584236
1760285895416066800,12.12906689453125,0.015271631069481373,-0.019547687843441963,-0.009773843921720982
1760285895426066700,12.139066650390625,0.016493361443281174,-0.036041051149368286,0.001832595793530345
1760285895436066800,12.14906689453125,0.014049900695681572,-0.042760565876960754,0.013439035043120384
1760285895446066700,12.159066650390624,0.005497787147760391,-0.0354301854968071,0.02321287989616394
1760285895456066800,12.16906689453125,-0.00427605677396059,-0.021380282938480377,0.025656340643763542
1760285895466066700,12.179066650390626,-0.00855211354792118,-0.02015855349600315,0.018325956538319588
1760285895476066800,12.18906689453125,-0.010995574295520782,-0.02687807008624077,0.00733038317412138
1760285895486066700,12.199066650390625,-0.015882495790719986,-0.00427605677396059,-0.019547687843441963
1760285895496066800,12.20906689453125,-0.004886921960860491,0.09346238523721695,-0.13377949595451355
1760285895506066700,12.219066650390625,-0.022602014243602753,-0.01466076634824276,-0.1362229436635971
1760285895516066800,12.22906689453125,-0.03176499158143997,0.06169738993048668,-0.1362229436635971
1760285895526066700,12.239066650390624,0.01771509274840355,0.17531833052635193,-0.11789698898792267
1760285895536066800,12.24906689453125,0.022602014243602753,0.08796459436416626,-0.08552113175392151
1760285895546066700,12.259066650390626,0.006108652334660292,0.0757472887635231,-0.04398229718208313
1760285895556066800,12.26906689453125,0.00427605677396059,0.06414084881544113,-0.0024434609804302454
1760285895566066700,12.279066650390625,0.02932153269648552,0.04092797264456749,0.02076941914856434
1760285895576066800,12.28906689453125,0.059864792972803116,0.04153883829712868,0.018325956538319588
1760285895586066700,12.299066650390625,0.07635815441608429,0.05314527451992035,0
1760285895596066800,12.30906689453125,0.08246681094169617,0.039706241339445114,-0.03176499158143997
1760285895606066700,12.319066650390624,0.07391469180583954,0.027488935738801956,-0.05864306539297104
1760285895616066800,12.32906689453125,0.05009094998240471,0.021991148591041565,-0.08552113175392151
1760285895626066700,12.339066650390626,0.02015855349600315,0.015882495790719986,-0.10873401165008545
1760285895636066800,12.34906689453125,-0.0006108652451075613,0.01771509274840355,-0.12400564551353455
1760285895646066700,12.359066650390625,-0.006719517521560192,0.021380282938480377,-0.1258382350206375
1760285895666066700,12.379066650390625,0.030543262138962746,0.05192354694008827,-0.05864306539297104
1760285895676066800,12.38906689453125,0.04398229718208313,0.045204028487205505,-0.029932396486401558
1760285895686066700,12.399066650390624,0.039095375686883926,0.031154127791523933,-0.01160643994808197
1760285895706066700,12.419066650390626,0.007941247895359993,0.028099801391363144,0.005497787147760391
1760285895726066700,12.439066650390625,-0.009773843921720982,0.02626720629632473,-0.012828170321881771
