time,seconds_elapsed,z,y,x
1760285883411411500,0.124411376953125,-0.009697485715150833,0.03627012297511101,-0.07147123664617538
1760285883444448500,0.157448486328125,-0.009697485715150833,0.03627012297511101,-0.07147123664617538
1760285883454448400,0.167448486328125,-0.009697485715150833,0.03627012297511101,-0.07147123664617538
1760285883464448500,0.177448486328125,0.00557414535433054,-0.015042556449770927,-0.08857546001672745
1760285883474448400,0.187448486328125,0.00862847175449133,-0.014431691728532314,-0.09712757170200348
1760285883484448500,0.197448486328125,0.008017606101930141,-0.013209961354732513,-0.09285151958465576
1760285883494448400,0.207448486328125,0.0031306843739002943,-0.015653422102332115,-0.07880161702632904
1760285883504448500,0.217448486328125,-0.0029779679607599974,-0.016264287754893303,-0.05742133408784866
1760285883514448400,0.227448486328125,-0.0029779679607599974,-0.009544769302010536,-0.03298672288656235
1760285883524448500,0.237448486328125,-0.004810563754290342,-0.009544769302010536,-0.01038470957428217
1760285883534448400,0.247448486328125,-0.007864889688789845,-0.025427265092730522,-0.00427605677396059
1760285883544448500,0.257448486328125,-0.009697485715150833,-0.04619668424129486,-0.006719517521560192
1760285883554448400,0.267448486328125,-0.008475755341351032,-0.060246583074331284,-0.015882495790719986
1760285883564448500,0.277448486328125,-0.006643159314990044,-0.060246583074331284,-0.030543262138962746
1760285883574448400,0.287448486328125,-0.006032294128090143,-0.0492510087788105,-0.04581489413976669
1760285883584448500,0.297448486328125,-0.0035888333804905415,-0.04680754989385605,-0.059864792972803116
1760285883594448400,0.307448486328125,0.0012980886967852712,-0.051083605736494064,-0.07696902006864548
1760285883604448500,0.317448486328125,-0.0005345070967450738,-0.04619668424129486,-0.08185594528913498
1760285883614448400,0.327448486328125,0.0006872233934700489,-0.03703370690345764,-0.07391469180583954
1760285883624448500,0.337448486328125,0.0037415495608001947,-0.021151209250092506,-0.056810468435287476
1760285883634448600,0.34744873046875,0.0031306843739002943,-0.0009926559869199991,-0.030543262138962746
1760285883644448500,0.357448486328125,0.0006872233934700489,0.021609358489513397,0.0012217304902151227
1760285883654448600,0.36744873046875,0.0012980886967852712,0.04909829422831535,0.03176499158143997
1760285883664448500,0.377448486328125,0.0031306843739002943,0.082085020840168,0.048258353024721146
1760285883674448600,0.38744873046875,0.0037415495608001947,0.07108944654464722,0.031154127791523933
1760285883684448500,0.397448486328125,0.002519819187000394,0.039324451237916946,-0.003054326167330146
1760285883694448600,0.40744873046875,-0.0029779679607599974,0.005115996580570936,-0.036041051149368286
1760285883704448500,0.417448486328125,-0.007254024967551231,-0.024205535650253296,-0.06108652427792549
1760285883714448600,0.42744873046875,-0.009697485715150833,-0.04375322163105011,-0.07880161702632904
1760285883724448500,0.437448486328125,-0.009697485715150833,-0.04558581858873367,-0.06841690838336945
1760285883734448600,0.44744873046875,-0.004199698567390442,-0.03275764733552933,-0.04642575979232788
1760285883744448500,0.457448486328125,0.0006872233934700489,-0.023594669997692108,-0.022602014243602753
1760285883754448600,0.46744873046875,-0.0011453722836449742,-0.01748601719737053,-0.007941247895359993
1760285883764448500,0.477448486328125,-0.007254024967551231,-0.01687515154480934,-0.00366519158706069
1760285883774448600,0.48744873046875,-0.013362676836550236,-0.018707748502492905,-0.00427605677396059
1760285883784448500,0.497448486328125,-0.012751812115311623,-0.018707748502492905,-0.007941247895359993
1760285883794448600,0.50744873046875,-0.004810563754290342,-0.016264287754893303,-0.014049900695681572
1760285883804448500,0.517448486328125,-0.007864889688789845,-0.012599095702171326,-0.021991148591041565
1760285883814448600,0.52744873046875,-0.015806138515472412,-0.014431691728532314,-0.02626720629632473
1760285883824448500,0.537448486328125,-0.021303925663232803,-0.011988230049610138,-0.024434609338641167
1760285883834448600,0.54744873046875,-0.02557998150587082,-0.0009926559869199991,-0.02076941914856434
1760285883844448500,0.557448486328125,-0.02802344225347042,0.002672535367310047,-0.019547687843441963
1760285883854448600,0.56744873046875,-0.023136520758271217,-0.010155634954571724,-0.025656340643763542
1760285883864448500,0.577448486328125,-0.0164170041680336,-0.0290924571454525,-0.03726277872920036
1760285883874448600,0.58744873046875,-0.015806138515472412,-0.024205535650253296,-0.0403171069920063
1760285883884448500,0.597448486328125,-0.014584408141672611,-0.01687515154480934,-0.04398229718208313
1760285883894448600,0.60744873046875,-0.010919216088950634,-0.008933904580771923,-0.04703662544488907
1760285883904448500,0.617448486328125,-0.007254024967551231,-0.010155634954571724,-0.04459316283464432
1760285883914448600,0.62744873046875,-0.005421428941190243,-0.008323038928210735,-0.030543262138962746
1760285883924448500,0.637448486328125,-0.007864889688789845,-0.00038179077091626823,-0.009162978269159794
1760285883934448600,0.64744873046875,-0.014584408141672611,0.01061378326267004,0.00855211354792118
1760285883944448500,0.657448486328125,-0.012751812115311623,0.014278975315392017,0.010995574295520782
1760285883954448600,0.66744873046875,-0.008475755341351032,0.024052819237113,0.00427605677396059
1760285883964448500,0.677448486328125,-0.0035888333804905415,0.030772335827350616,-0.0012217304902151227
1760285883974448600,0.68744873046875,-0.0011453722836449742,0.0264962799847126,-0.001832595793530345
1760285883984448500,0.697448486328125,-0.0011453722836449742,0.022831087931990623,0.003054326167330146
1760285883994448600,0.70744873046875,-0.0035888333804905415,0.024663684889674187,0
1760285884004448500,0.717448486328125,-0.006643159314990044,0.010002918541431427,-0.01038470957428217
1760285884014448600,0.72744873046875,-0.012751812115311623,0.006337726954370737,-0.019547687843441963
1760285884024448500,0.737448486328125,-0.015195272862911224,0.025885414332151413,-0.028099801391363144
1760285884034448600,0.74744873046875,-0.010919216088950634,0.0417679101228714,-0.03726277872920036
1760285884044448500,0.757448486328125,-0.009697485715150833,0.057039543986320496,-0.04886921867728233
1760285884054448600,0.76744873046875,-0.013362676836550236,0.07414376735687256,-0.05864306539297104
1760285884064448500,0.777448486328125,-0.0164170041680336,0.07780896127223969,-0.05497787147760391
1760285884074448600,0.78744873046875,-0.02802344225347042,0.05581781268119812,-0.02871066704392433
1760285884084448500,0.797448486328125,-0.043905939906835556,0.0417679101228714,0.001832595793530345
1760285884094448600,0.80744873046875,-0.05490151420235634,0.039324451237916946,0.02932153269648552
1760285884104448500,0.817448486328125,-0.056123245507478714,0.04787656292319298,0.056810468435287476
1760285884114448600,0.82744873046875,-0.058566704392433167,0.09124799817800522,0.06475171446800232
1760285884124448500,0.837448486328125,-0.02863430790603161,0.46876272559165955,-0.18631389737129211
1760285884134448600,0.84744873046875,-0.004810563754290342,0.34170275926589966,-0.31581732630729675
1760285884144448500,0.857448486328125,-0.006643159314990044,-0.03275764733552933,-0.2590068578720093
1760285884154448600,0.86744873046875,0.022067507728934288,0.04787656292319298,-0.16798794269561768
1760285884164448500,0.877448486328125,0.06910412758588791,0.15966489911079407,-0.0910189226269722
1760285884174448600,0.88744873046875,0.09720393270254135,0.1779908537864685,-0.033597588539123535
1760285884184448500,0.897448486328125,0.10270171612501144,0.19937114417552948,-0.01038470957428217
1760285884194448600,0.90744873046875,0.08865182101726532,0.23785565793514252,-0.02687807008624077
1760285884204448500,0.917448486328125,0.0697149932384491,0.2751184403896332,-0.08735372871160507
1760285884214448600,0.92744873046875,0.07032585889101028,0.3465896546840668,-0.26022860407829285
1760285884224448500,0.937448486328125,0.07826711237430573,0.3563635051250458,-0.3732386529445648
1760285884234448600,0.94744873046875,0.09048441797494888,0.35269832611083984,-0.4612032473087311
1760285884244448500,0.957448486328125,0.0996473953127861,0.3398701548576355,-0.4893030524253845
1760285884254448600,0.96744873046875,0.1198059469461441,0.3001639246940613,-0.4404338300228119
1760285884264448500,0.977448486328125,0.15279266238212585,0.22136229276657104,-0.3597996234893799
1760285884274448600,0.98744873046875,0.19249890744686127,0.17554740607738495,-0.25961771607398987
1760285884284448500,0.997448486328125,0.22853995859622955,0.15111279487609863,-0.12461651116609573
1760285884294448600,1.00744873046875,0.21937698125839233,0.122402124106884,-0.05864306539297104
1760285884304448500,1.017448486328125,0.15829046070575714,0.007559457328170538,-0.06475171446800232
1760285884314448600,1.02744873046875,0.09659306704998016,0.03504839166998863,-0.08857546001672745
1760285884324448500,1.037448486328125,0.03061962127685547,0.054596081376075745,-0.09773843735456467
1760285884334448600,1.04744873046875,-0.026801712810993195,0.019776761531829834,-0.09346238523721695
1760285884344448500,1.057448486328125,-0.08116871863603592,0.022220224142074585,-0.0659734457731247
1760285884354448600,1.06744873046875,-0.10132727026939392,0.039324451237916946,-0.03848451003432274
1760285884364448500,1.077448486328125,-0.11904236674308777,0.04482223838567734,-0.01038470957428217
1760285884374448600,1.08744873046875,-0.128205344080925,0.05032002553343773,0.014049900695681572
1760285884384448500,1.097448486328125,-0.11598803848028183,0.057650405913591385,0.024434609338641167
1760285884394448600,1.10744873046875,-0.08788824081420898,0.06314819306135178,0.015271631069481373
1760285884404448500,1.117448486328125,-0.05429064854979515,0.06314819306135178,-0.003054326167330146
1760285884414448000,1.1274482421875,-0.023136520758271217,0.057039543986320496,-0.0403171069920063
1760285884424448300,1.1374482421875,-0.017638733610510826,0.05642867833375931,-0.06230825558304787
1760285884434448100,1.1474482421875,-0.02557998150587082,0.07047858089208603,-0.07757988572120667
1760285884444448300,1.1574482421875,-0.04024074971675873,0.07414376735687256,-0.08368854224681854
1760285884454448000,1.1674482421875,-0.058566704392433167,0.07353290170431137,-0.08185594528913498
1760285884464448300,1.1774482421875,-0.07444920390844345,0.07170030474662781,-0.07391469180583954
1760285884474448100,1.1874482421875,-0.0872773751616478,0.014278975315392017,-0.03787364438176155
1760285884484448300,1.1974482421875,-0.09155342727899551,-0.051083605736494064,0.060475658625364304
1760285884494448000,1.2074482421875,-0.07750352472066879,-0.02848159149289131,0.1007927656173706
1760285884504448300,1.2174482421875,-0.055512379854917526,-0.026648996397852898,0.12034045159816742
1760285884514448100,1.2274482421875,-0.03718642145395279,-0.016264287754893303,0.11362093687057495
1760285884524448300,1.2374482421875,-0.029245173558592796,0.010002918541431427,0.08735372871160507
1760285884534448000,1.2474482421875,-0.026801712810993195,0.017333300784230232,0.04948008432984352
1760285884544448300,1.2574482421875,-0.024358252063393593,0.00022907447419129312,0.009773843921720982
1760285884554448100,1.2674482421875,-0.012751812115311623,-0.039477165788412094,-0.04642575979232788
1760285884564448300,1.2774482421875,-0.005421428941190243,-0.05780312418937683,-0.07269296050071716
1760285884574448000,1.2874482421875,-0.0011453722836449742,-0.059635721147060394,-0.08735372871160507
1760285884584448300,1.2974482421875,-0.0017562375869601965,-0.060246583074331284,-0.08429940044879913
1760285884594448100,1.3074482421875,-0.008475755341351032,-0.05291620269417763,-0.05742133408784866
1760285884604448300,1.3174482421875,-0.010919216088950634,-0.041920628398656845,-0.01771509274840355
1760285884614448000,1.3274482421875,-0.006032294128090143,-0.021762074902653694,0.021991148591041565
1760285884624448300,1.3374482421875,0.00007635815563844517,0.016722436994314194,0.054367005825042725
1760285884634448100,1.3474482421875,0.002519819187000394,0.03565925732254982,0.048258353024721146
1760285884644448300,1.3574482421875,0.00618501054123044,0.042989641427993774,0.028099801391363144
1760285884654448000,1.3674482421875,0.01290452852845192,0.04115704447031021,0.0012217304902151227
1760285884664448300,1.3774482421875,0.022067507728934288,0.04054617881774902,-0.031154127791523933
1760285884674448100,1.3874482421875,0.03061962127685547,0.03199406713247299,-0.056810468435287476
1760285884684448300,1.3974482421875,0.03978259861469269,0.011835514567792416,-0.06719517707824707
1760285884694448000,1.4074482421875,0.04283692687749863,-0.02848159149289131,-0.036651913076639175
1760285884704448300,1.4174482421875,0.02756529487669468,-0.021762074902653694,-0.0024434609804302454
1760285884714448600,1.42744873046875,0.01840231567621231,-0.005879578180611134,0.02321287989616394
1760285884724448500,1.437448486328125,0.017180584371089935,0.01366810966283083,0.0354301854968071
1760285884734448600,1.44744873046875,0.022678371518850327,0.025885414332151413,0.036041051149368286
1760285884744449000,1.457448974609375,0.028787024319171906,0.024663684889674187,0.02871066704392433
1760285884754449200,1.46744921875,0.03367394581437111,0.01366810966283083,0.01710422709584236
1760285884764449000,1.477448974609375,0.03672827407717705,-0.022372938692569733,-0.006108652334660292
1760285884774449200,1.48744921875,0.03856086730957031,-0.04130976274609566,-0.021380282938480377
1760285884784449000,1.497448974609375,0.0391717329621315,-0.039477165788412094,-0.03237585723400116
1760285884794449200,1.50744921875,0.03856086730957031,-0.019318614155054092,-0.0403171069920063
1760285884804449000,1.517448974609375,0.037950001657009125,0.0038942659739404917,-0.04398229718208313
1760285884814449200,1.52744921875,0.032452214509248734,-0.002825251780450344,-0.045204028487205505
1760285884824449000,1.537448974609375,0.017791450023651123,-0.02603813074529171,-0.042760565876960754
1760285884834449200,1.54744921875,-0.012751812115311623,-0.04253149405121803,-0.02932153269648552
1760285884844449000,1.557448974609375,-0.032910365611314774,-0.04375322163105011,-0.013439035043120384
1760285884854449200,1.56744921875,-0.04512767121195793,-0.0290924571454525,0.00427605677396059
1760285884864449000,1.577448974609375,-0.046960264444351196,0.0014508049935102463,0.015271631069481373
1760285884874449200,1.58744921875,-0.04268420860171318,0.03260493278503418,0.009773843921720982
1760285884884449000,1.597448974609375,-0.02802344225347042,0.036880988627672195,-0.00733038317412138
1760285884894449200,1.60744921875,-0.013973542489111423,0.01366810966283083,-0.027488935738801956
1760285884904449000,1.617448974609375,-0.0005345070967450738,-0.025427265092730522,-0.05497787147760391
1760285884914449200,1.62744921875,0.002519819187000394,-0.03459024429321289,-0.0659734457731247
1760285884924449000,1.637448974609375,0.0037415495608001947,-0.027870727702975273,-0.07147123664617538
1760285884934449200,1.64744921875,0.0037415495608001947,-0.021762074902653694,-0.07391469180583954
1760285884944449000,1.657448974609375,0.002519819187000394,-0.014431691728532314,-0.0708603709936142
1760285884954449200,1.66744921875,0.0019089538836851716,-0.0071013085544109344,-0.06169738993048668
1760285884966067200,1.679067138671875,0.0012980886967852712,-0.00038179077091626823,-0.042760565876960754
1760285884976067300,1.6890673828125,0.0031306843739002943,0.01366810966283083,-0.01771509274840355
1760285884986067200,1.699067138671875,0.0037415495608001947,0.019165897741913795,-0.007941247895359993
1760285884996067300,1.7090673828125,-0.0011453722836449742,0.016111571341753006,-0.00733038317412138
1760285885006067200,1.719067138671875,-0.007254024967551231,0.0014508049935102463,-0.012217304669320583
1760285885016067300,1.7290673828125,-0.006032294128090143,-0.011377365328371525,-0.02382374368607998
1760285885026067200,1.739067138671875,-0.0017562375869601965,-0.024816401302814484,-0.03237585723400116
1760285885036067300,1.7490673828125,0.004963280167430639,-0.03459024429321289,-0.02382374368607998
1760285885046066700,1.759066650390625,0.014737123623490334,-0.03275764733552933,-0.013439035043120384
1760285885056066800,1.76906689453125,0.022067507728934288,-0.026648996397852898,-0.005497787147760391
1760285885066066400,1.77906640625,0.023900102823972702,-0.022372938692569733,0.0006108652451075613
1760285885076066300,1.78906640625,0.0190131813287735,-0.019318614155054092,0.0024434609804302454
1760285885086066400,1.79906640625,0.011682798154652119,-0.012599095702171326,0.009162978269159794
1760285885096066300,1.80906640625,0.00557414535433054,-0.014431691728532314,0.018936822190880775
1760285885106066400,1.81906640625,-0.0011453722836449742,-0.013820826075971127,0.02932153269648552
1760285885116066300,1.82906640625,-0.006032294128090143,-0.009544769302010536,0.03237585723400116
1760285885126066400,1.83906640625,-0.011530081741511822,-0.004046982154250145,0.030543262138962746
1760285885136066600,1.849066650390625,-0.013362676836550236,-0.005268712528049946,0.021380282938480377
1760285885146066400,1.85906640625,-0.015806138515472412,-0.010155634954571724,0.014049900695681572
1760285885156066600,1.869066650390625,-0.013362676836550236,-0.005879578180611134,0.009162978269159794
1760285885166066400,1.87906640625,-0.0029779679607599974,0.005115996580570936,0
1760285885176066300,1.88906640625,0.01840231567621231,-0.0016035212902352214,-0.010995574295520782
1760285885186066400,1.89906640625,0.023900102823972702,-0.01748601719737053,-0.02015855349600315
1760285885196066300,1.90906640625,0.022678371518850327,-0.0339793786406517,-0.022602014243602753
1760285885206066400,1.91906640625,0.01595885492861271,-0.041920628398656845,-0.021380282938480377
1760285885216066300,1.92906640625,0.011071932502090931,-0.04008803144097328,-0.021991148591041565
1760285885226066400,1.93906640625,0.013515393249690533,-0.035811975598335266,-0.027488935738801956
1760285885236066300,1.94906640625,0.01595885492861271,-0.021151209250092506,-0.03481931984424591
1760285885246066400,1.95906640625,0.017180584371089935,-0.002825251780450344,-0.045204028487205505
1760285885256066300,1.96906640625,0.009239336475729942,0.002672535367310047,-0.039095375686883926
1760285885266066400,1.97906640625,-0.006032294128090143,0.000839939690195024,-0.02871066704392433
1760285885276066300,1.98906640625,-0.023747386410832405,0.00022907447419129312,-0.019547687843441963
1760285885286066400,1.99906640625,-0.041462477296590805,-0.00038179077091626823,-0.015271631069481373
1760285885296066300,2.00906640625,-0.053068917244672775,-0.0022143865935504436,-0.014049900695681572
1760285885306066400,2.01906640625,-0.05734497308731079,0.01061378326267004,-0.010995574295520782
1760285885316066300,2.02906640625,-0.06345362961292267,0.02099849283695221,-0.009162978269159794
1760285885326066400,2.03906640625,-0.07017314434051514,0.016111571341753006,-0.009773843921720982
1760285885336066300,2.04906640625,-0.07933612167835236,0.014278975315392017,-0.007941247895359993
1760285885346066400,2.05906640625,-0.08422304689884186,0.01488984003663063,-0.003054326167330146
1760285885356066300,2.06906640625,-0.07933612167835236,0.013057244941592216,0.0012217304902151227
1760285885366066700,2.079066650390625,-0.06223189830780029,0.0038942659739404917,0.00733038317412138
1760285885376066800,2.08906689453125,-0.03901901841163635,-0.0016035212902352214,0.014049900695681572
1760285885386067000,2.09906689453125,-0.006032294128090143,-0.0016035212902352214,0.02015855349600315
1760285885396066800,2.10906689453125,0.0031306843739002943,0.000839939690195024,0.021991148591041565
1760285885406067000,2.11906689453125,0.0031306843739002943,-0.00038179077091626823,0.018325956538319588
1760285885416066800,2.12906689453125,0.0012980886967852712,-0.0022143865935504436,0.009773843921720982
1760285885426066700,2.139066650390625,-0.0011453722836449742,-0.00038179077091626823,0.005497787147760391
1760285885436066800,2.14906689453125,-0.0011453722836449742,-0.004046982154250145,0.00855211354792118
1760285885456066800,2.16906689453125,-0.002367102773860097,-0.026648996397852898,0.033597588539123535
1760285885466066700,2.179066650390625,-0.004199698567390442,-0.025427265092730522,0.03420845419168472
1760285885476066800,2.18906689453125,-0.006032294128090143,-0.012599095702171326,0.029932396486401558
1760285885486066700,2.199066650390625,-0.007254024967551231,0.004505131393671036,0.027488935738801956
1760285885496066800,2.20906689453125,-0.010919216088950634,0.016111571341753006,0.028099801391363144
1760285885506066700,2.219066650390625,-0.015806138515472412,0.017333300784230232,0.028099801391363144
1760285885516066800,2.22906689453125,-0.0188604649156332,0.01488984003663063,0.027488935738801956
1760285885526066700,2.239066650390625,-0.0188604649156332,0.011224648915231228,0.01466076634824276
1760285885536066800,2.24906689453125,-0.0188604649156332,0.022220224142074585,0.001832595793530345
1760285885546066700,2.259066650390625,-0.02191479131579399,0.033826664090156555,-0.009773843921720982
1760285885556066800,2.26906689453125,-0.021303925663232803,0.04360050708055496,-0.014049900695681572
1760285885566066700,2.279066650390625,-0.023136520758271217,0.04909829422831535,-0.012217304669320583
1760285885576066800,2.28906689453125,-0.026190847158432007,0.04604396969079971,-0.006719517521560192
1760285885586066700,2.299066650390625,-0.032299499958753586,0.036880988627672195,0.001832595793530345
1760285885596066800,2.30906689453125,-0.03718642145395279,0.015500705689191818,0.016493361443281174
1760285885606066700,2.319066650390625,-0.03352123126387596,-0.0016035212902352214,0.02321287989616394
1760285885616066800,2.32906689453125,-0.02191479131579399,0.00022907447419129312,0.025045474991202354
1760285885626067000,2.33906689453125,-0.010308351367712021,0.00939205288887024,0.01710422709584236
1760285885636066800,2.34906689453125,-0.0029779679607599974,0.01061378326267004,0.010995574295520782
1760285885646067000,2.35906689453125,-0.0035888333804905415,0.01061378326267004,0.00733038317412138
1760285885656066800,2.36906689453125,-0.010919216088950634,0.011835514567792416,0.004886921960860491
1760285885666067000,2.37906689453125,-0.01947133056819439,0.011224648915231228,0.009773843921720982
1760285885676066800,2.38906689453125,-0.023136520758271217,0.00939205288887024,0.015882495790719986
1760285885686066700,2.399066650390625,-0.021303925663232803,0.015500705689191818,0.021380282938480377
1760285885696066800,2.40906689453125,-0.013362676836550236,0.028328875079751015,0.025045474991202354
1760285885706066700,2.419066650390625,-0.006032294128090143,0.042989641427993774,0.025656340643763542
1760285885716066800,2.42906689453125,0.0006872233934700489,0.04909829422831535,0.02626720629632473
1760285885726066700,2.439066650390625,0.006795875728130341,0.03199406713247299,0.03481931984424591
1760285885736066800,2.44906689453125,0.006795875728130341,0.017333300784230232,0.04642575979232788
1760285885746066700,2.459066650390625,0.004352414980530739,0.008170322515070438,0.05742133408784866
1760285885756066800,2.46906689453125,-0.0011453722836449742,0.000839939690195024,0.06108652427792549
1760285885766066700,2.479066650390625,-0.005421428941190243,-0.004046982154250145,0.059864792972803116
1760285885776066800,2.48906689453125,-0.004199698567390442,-0.005879578180611134,0.051312681287527084
1760285885786066700,2.499066650390625,0.004352414980530739,-0.004657847341150045,0.03787364438176155
1760285885796066800,2.50906689453125,0.020845776423811913,-0.01687515154480934,0.025656340643763542
1760285885806066700,2.519066650390625,0.05077817291021347,0.09980010986328125,-0.06963863968849182
1760285885816066800,2.52906689453125,0.08193229883909225,0.12606731057167053,-0.18570303916931152
1760285885826066700,2.539066650390625,0.0593302883207798,0.021609358489513397,-0.17104226350784302
1760285885836066800,2.54906689453125,0.037950001657009125,0.06986771523952484,-0.18081611394882202
1760285885846066700,2.559066650390625,0.009239336475729942,0.08147415518760681,-0.1569923609495163
1760285885856066800,2.56906689453125,-0.013362676836550236,0.07780896127223969,-0.1264491081237793
1760285885866066700,2.579066650390625,-0.030466904863715172,0.1126282811164856,-0.05742133408784866
1760285885876066800,2.58906689453125,-0.02863430790603161,0.12484558671712875,-0.012828170321881771
1760285885886067000,2.59906689453125,-0.01947133056819439,0.10590875893831253,0.018936822190880775
1760285885896066800,2.60906689453125,-0.007864889688789845,0.07414376735687256,0.02932153269648552
1760285885906067000,2.61906689453125,0.004352414980530739,0.04421137273311615,0.025045474991202354
1760285885916066800,2.62906689453125,0.013515393249690533,0.025274548679590225,0.010995574295520782
1760285885926066700,2.639066650390625,0.01595885492861271,0.018555032089352608,-0.006108652334660292
1760285885936066800,2.64906689453125,-0.0005345070967450738,0.016111571341753006,-0.04398229718208313
1760285885946066700,2.659066650390625,-0.014584408141672611,0.007559457328170538,-0.06352998316287994
1760285885956066800,2.66906689453125,-0.02496911771595478,0.0038942659739404917,-0.07269296050071716
1760285885966066700,2.679066650390625,-0.02557998150587082,0.005726861767470837,-0.07147123664617538
1760285885976066800,2.68906689453125,-0.020082194358110428,0.008781188167631626,-0.06780604273080826
1760285885986066700,2.699066650390625,-0.013362676836550236,0.0069485921412706375,-0.06291911751031876
1760285885996066800,2.70906689453125,-0.0017562375869601965,0.0069485921412706375,-0.05619960278272629
1760285886006066700,2.719066650390625,0.015347989276051521,-0.008933904580771923,-0.03298672288656235
1760285886016066800,2.72906689453125,0.020234910771250725,-0.012599095702171326,-0.02076941914856434
1760285886026066700,2.739066650390625,0.022067507728934288,-0.0071013085544109344,-0.016493361443281174
1760285886036066800,2.74906689453125,0.020845776423811913,-0.0009926559869199991,-0.018936822190880775
1760285886046066700,2.759066650390625,0.019624045118689537,0.0032834007870405912,-0.022602014243602753
1760285886056066800,2.76906689453125,0.017791450023651123,0.0014508049935102463,-0.02932153269648552
1760285886066066700,2.779066650390625,0.015347989276051521,-0.005268712528049946,-0.039095375686883926
1760285886076066800,2.78906689453125,0.010461067780852318,-0.03214678168296814,-0.04214970022439957
1760285886086066700,2.799066650390625,0.006795875728130341,-0.039477165788412094,-0.04459316283464432
1760285886106067000,2.81906689453125,0.004963280167430639,-0.027870727702975273,-0.036651913076639175
1760285886116066800,2.82906689453125,0.00985020212829113,-0.01992947794497013,-0.02382374368607998
1760285886126067000,2.83906689453125,0.014737123623490334,-0.013820826075971127,-0.012828170321881771
1760285886136066800,2.84906689453125,0.015347989276051521,-0.008323038928210735,-0.00855211354792118
1760285886146067000,2.85906689453125,0.0006872233934700489,-0.03520110994577408,-0.03481931984424591
1760285886156066800,2.86906689453125,-0.023747386410832405,-0.06696610152721405,-0.06291911751031876
1760285886166067000,2.87906689453125,-0.046960264444351196,-0.09689849615097046,-0.07941248267889023
1760285886176066800,2.88906689453125,-0.05978843569755554,-0.11217013001441956,-0.08124507963657379
1760285886186067000,2.89906689453125,-0.06284276396036148,-0.10911580175161362,-0.06963863968849182
1760285886196066800,2.90906689453125,-0.06284276396036148,-0.0999528244137764,-0.0555887371301651
1760285886206067000,2.91906689453125,-0.06589708477258682,-0.08712465316057205,-0.04764748737215996
1760285886216066800,2.92906689453125,-0.07567093521356583,-0.0797942727804184,-0.042760565876960754
1760285886226067000,2.93906689453125,-0.07567093521356583,-0.07673994451761246,-0.0403171069920063
1760285886236066800,2.94906689453125,-0.06834054738283157,-0.07918340712785721,-0.04459316283464432
1760285886246067000,2.95906689453125,-0.06101016700267792,-0.08895725011825562,-0.06230825558304787
1760285886256066800,2.96906689453125,-0.053068917244672775,-0.0944550409913063,-0.09468411654233932
1760285886266067000,2.97906689453125,-0.04573853686451912,-0.015042556449770927,-0.10384709388017654
1760285886276066800,2.98906689453125,-0.03107776865363121,0.06436992436647415,-0.09346238523721695
1760285886286067000,2.99906689453125,-0.01702786795794964,0.06498079001903534,-0.04459316283464432
1760285886296066800,3.00906689453125,-0.02863430790603161,-0.0022143865935504436,-0.014049900695681572
1760285886306067000,3.01906689453125,-0.05367978289723396,-0.10056369006633759,0.005497787147760391
1760285886316066800,3.02906689453125,-0.0823904499411583,-0.15370896458625793,0.013439035043120384
1760285886326067000,3.03906689453125,-0.09582948684692383,-0.17264579236507416,-0.00855211354792118
1760285886336066800,3.04906689453125,-0.09949467331171036,-0.12683089077472687,-0.04153883829712868
1760285886346067000,3.05906689453125,-0.03901901841163635,0.26717719435691833,-0.014049900695681572
1760285886356066800,3.06906689453125,0.10942123830318451,0.31238120794296265,0.016493361443281174
1760285886366067000,3.07906689453125,0.19494237005710602,0.22502748668193817,0.04459316283464432
1760285886376066800,3.08906689453125,0.19494237005710602,0.13400855660438538,0.059864792972803116
1760285886386067000,3.09906689453125,0.15890131890773773,0.057650405913591385,0.05192354694008827
1760285886396066800,3.10906689453125,0.12713633477687836,-0.009544769302010536,0.01466076634824276
1760285886406067000,3.11906689453125,0.10575604438781738,-0.0290924571454525,-0.05009094998240471
1760285886416066800,3.12906689453125,0.084375761449337,-0.0022143865935504436,-0.13377949595451355
1760285886426066700,3.139066650390625,0.07154759019613266,0.008781188167631626,-0.14782938361167908
1760285886436066800,3.14906689453125,0.06604980677366257,0.0069485921412706375,-0.12400564551353455
1760285886446066700,3.159066650390625,0.06299547851085663,0.0014508049935102463,-0.07757988572120667
1760285886466066700,3.179066650390625,0.06543894112110138,-0.00038179077091626823,0.02015855349600315
1760285886486066700,3.199066650390625,0.07521278411149979,0.014278975315392017,0.06841690838336945
1760285886496066800,3.20906689453125,0.07399105280637741,0.019165897741913795,0.060475658625364304
1760285886506066700,3.219066650390625,0.08926268666982651,0.02955060638487339,0.03237585723400116
1760285886516066800,3.22906689453125,0.11675161868333817,0.04054617881774902,0.003054326167330146
1760285886526066700,3.239066650390625,0.12591460347175598,0.04115704447031021,-0.015882495790719986
1760285886536066800,3.24906689453125,0.1149190217256546,0.011835514567792416,-0.031154127791523933
1760285886546066700,3.259066650390625,0.10881037265062332,-0.008933904580771923,-0.03726277872920036
1760285886556066800,3.26906689453125,0.10453431308269501,-0.04864014685153961,-0.02626720629632473
1760285886566066700,3.279066650390625,0.08009970188140869,-0.10056369006633759,-0.022602014243602753
1760285886576066800,3.28906689453125,0.04711298272013664,-0.180587038397789,-0.03848451003432274
1760285886586066700,3.299066650390625,0.020845776423811913,-0.20929770171642303,-0.03787364438176155
1760285886596066800,3.30906689453125,0.009239336475729942,-0.1799761801958084,-0.01160643994808197
1760285886606066700,3.319066650390625,0.004963280167430639,-0.13660474121570587,0.021380282938480377
1760285886616066800,3.32906689453125,0.00618501054123044,-0.08712465316057205,0.0507018156349659
1760285886626067000,3.33906689453125,0.016569720581173897,-0.033368512988090515,0.07757988572120667
1760285886636066800,3.34906689453125,0.025121834129095078,-0.027259862050414085,0.09040805697441101
1760285886646067000,3.35906689453125,0.03367394581437111,-0.03214678168296814,0.09040805697441101
1760285886656066800,3.36906689453125,0.03611740842461586,-0.04619668424129486,0.08185594528913498
1760285886666067000,3.37906689453125,0.03550654277205467,-0.0541379339993,0.05803219974040985
1760285886676066800,3.38906689453125,0.03000875562429428,-0.04986187443137169,0.03298672288656235
1760285886686066700,3.399066650390625,0.019624045118689537,-0.03703370690345764,0.01160643994808197
1760285886696066800,3.40906689453125,0.0019089538836851716,-0.01748601719737053,-0.007941247895359993
1760285886706066700,3.419066650390625,-0.010919216088950634,-0.009544769302010536,-0.013439035043120384
1760285886716066800,3.42906689453125,-0.0188604649156332,-0.006490443367511034,-0.012828170321881771
1760285886726066700,3.439066650390625,-0.02252565510571003,-0.010766499675810337,-0.004886921960860491
1760285886736066800,3.44906689453125,-0.01947133056819439,-0.011988230049610138,0.003054326167330146
1760285886746066700,3.459066650390625,-0.007254024967551231,-0.005879578180611134,0.007941247895359993
1760285886756066800,3.46906689453125,0.00862847175449133,0.00022907447419129312,0.00855211354792118
1760285886766066700,3.479066650390625,0.0214566420763731,0.002672535367310047,-0.0024434609804302454
1760285886776066800,3.48906689453125,0.020234910771250725,0.0069485921412706375,-0.018936822190880775
1760285886786066700,3.499066650390625,0.011682798154652119,0.011224648915231228,-0.039095375686883926
1760285886796066800,3.50906689453125,-0.0011453722836449742,0.011224648915231228,-0.056810468435287476
1760285886806066700,3.519066650390625,-0.011530081741511822,0.007559457328170538,-0.06780604273080826
1760285886816066800,3.52906689453125,-0.0164170041680336,0.0069485921412706375,-0.06902777403593063
1760285886826066700,3.539066650390625,-0.017638733610510826,0.0069485921412706375,-0.059864792972803116
1760285886836066800,3.54906689453125,-0.014584408141672611,0.01366810966283083,-0.033597588539123535
1760285886846066700,3.559066650390625,-0.007864889688789845,0.021609358489513397,-0.018936822190880775
1760285886856066800,3.56906689453125,-0.0011453722836449742,0.024052819237113,-0.013439035043120384
1760285886866066700,3.579066650390625,0.0037415495608001947,0.018555032089352608,-0.015271631069481373
1760285886876066800,3.58906689453125,0.004963280167430639,0.005115996580570936,-0.02687807008624077
1760285886886067000,3.59906689453125,0.00007635815563844517,-0.009544769302010536,-0.03848451003432274
1760285886896066800,3.60906689453125,-0.006643159314990044,-0.01748601719737053,-0.04948008432984352
1760285886906067000,3.61906689453125,-0.01702786795794964,-0.012599095702171326,-0.0555887371301651
1760285886916066800,3.62906689453125,-0.0188604649156332,-0.005879578180611134,-0.0507018156349659
1760285886926066700,3.639066650390625,-0.02191479131579399,-0.0009926559869199991,-0.039095375686883926
1760285886936066800,3.64906689453125,-0.021303925663232803,-0.0016035212902352214,-0.025656340643763542
1760285886946066700,3.659066650390625,-0.0188604649156332,-0.015653422102332115,-0.01160643994808197
1760285886956066800,3.66906689453125,-0.0188604649156332,-0.02848159149289131,0.0012217304902151227
1760285886966066700,3.679066650390625,-0.0164170041680336,-0.024205535650253296,0.012217304669320583
1760285886976066800,3.68906689453125,-0.013973542489111423,-0.005268712528049946,0.02626720629632473
1760285886986066700,3.699066650390625,-0.015195272862911224,-0.004046982154250145,0.033597588539123535
1760285886996066800,3.70906689453125,-0.01702786795794964,-0.010766499675810337,0.03481931984424591
1760285887006066700,3.719066650390625,-0.017638733610510826,-0.019318614155054092,0.031154127791523933
1760285887016066800,3.72906689453125,-0.015195272862911224,-0.018096882849931717,0.025045474991202354
1760285887026066700,3.739066650390625,-0.009086620062589645,-0.008933904580771923,0.01710422709584236
1760285887036066800,3.74906689453125,0.0031306843739002943,-0.0009926559869199991,0
1760285887046066700,3.759066650390625,0.00557414535433054,0.00022907447419129312,-0.007941247895359993
1760285887056066800,3.76906689453125,0.004352414980530739,-0.008323038928210735,-0.006719517521560192
1760285887066066700,3.779066650390625,-0.004810563754290342,-0.02298380434513092,0.0006108652451075613
1760285887076066800,3.78906689453125,-0.011530081741511822,-0.027870727702975273,0.00733038317412138
1760285887086066700,3.799066650390625,-0.012140946462750435,-0.027870727702975273,0.012217304669320583
1760285887096066800,3.80906689453125,-0.006643159314990044,-0.026648996397852898,0.016493361443281174
1760285887106066700,3.819066650390625,0.004963280167430639,-0.01992947794497013,0.01466076634824276
1760285887116066800,3.82906689453125,0.00985020212829113,-0.013209961354732513,0.009773843921720982
1760285887126067000,3.83906689453125,0.009239336475729942,-0.004657847341150045,0.00427605677396059
1760285887136066800,3.84906689453125,0.00618501054123044,0.0038942659739404917,-0.001832595793530345
1760285887146067000,3.85906689453125,0.00007635815563844517,0.00939205288887024,-0.00733038317412138
1760285887156066800,3.86906689453125,-0.002367102773860097,0.004505131393671036,-0.012828170321881771
1760285887166067000,3.87906689453125,-0.004199698567390442,-0.012599095702171326,-0.01771509274840355
1760285887176066800,3.88906689453125,-0.012751812115311623,-0.05230533704161644,-0.02076941914856434
1760285887186066700,3.899066650390625,-0.018249599263072014,-0.056581392884254456,-0.02382374368607998
1760285887196066800,3.90906689453125,-0.0188604649156332,-0.038866300135850906,-0.02932153269648552
1760285887206066700,3.919066650390625,-0.015806138515472412,-0.02603813074529171,-0.02932153269648552
1760285887216066800,3.92906689453125,-0.013362676836550236,-0.01748601719737053,-0.018325956538319588
1760285887226066700,3.939066650390625,-0.011530081741511822,-0.015042556449770927,0
1760285887236066800,3.94906689453125,-0.013362676836550236,-0.027870727702975273,0.014049900695681572
1760285887246067000,3.95906689453125,-0.017638733610510826,-0.035811975598335266,0.01771509274840355
1760285887256066800,3.96906689453125,-0.0188604649156332,-0.025427265092730522,0.009162978269159794
1760285887266067000,3.97906689453125,-0.01947133056819439,-0.010155634954571724,-0.005497787147760391
1760285887276066800,3.98906689453125,-0.01947133056819439,0.07964155822992325,0.01771509274840355
1760285887286067000,3.99906689453125,0.0012980886967852712,0.15966489911079407,0.05009094998240471
1760285887296066800,4.00906689453125,0.020234910771250725,0.16516269743442535,0.06780604273080826
1760285887306067000,4.01906689453125,0.023289237171411514,0.15599970519542694,0.06841690838336945
1760285887316066800,4.02906689453125,0.02756529487669468,0.11629346758127213,0.04642575979232788
1760285887326067000,4.03906689453125,0.03306308016180992,0.0771980956196785,0.024434609338641167
1760285887336066800,4.04906689453125,0.043447788804769516,0.06864598393440247,0.0012217304902151227
1760285887346067000,4.05906689453125,0.06055201590061188,0.08758280426263809,-0.021991148591041565
1760285887356066800,4.06906689453125,0.07338018715381622,0.12301298975944519,-0.0354301854968071
1760285887366067000,4.07906689453125,0.08315403014421463,0.16394096612930298,-0.03237585723400116
1760285887376066800,4.08906689453125,0.08743008971214294,0.17982345819473267,-0.019547687843441963
1760285887386067000,4.09906689453125,0.07521278411149979,0.1529453843832016,-0.018936822190880775
1760285887396066800,4.10906689453125,0.05383250117301941,0.09674578160047531,-0.024434609338641167
1760285887406067000,4.11906689453125,0.028787024319171906,0.03749185428023338,-0.036651913076639175
1760285887416066800,4.12906689453125,0.007406740915030241,-0.0034361169673502445,-0.04948008432984352
1760285887426067000,4.13906689453125,-0.010919216088950634,-0.024205535650253296,-0.06230825558304787
1760285887436066800,4.14906689453125,-0.023747386410832405,-0.02848159149289131,-0.0708603709936142
1760285887446067000,4.15906689453125,-0.02863430790603161,-0.021151209250092506,-0.07330382615327835
1760285887456066800,4.16906689453125,-0.0188604649156332,-0.004046982154250145,-0.06414084881544113
1760285887466067000,4.17906689453125,-0.008475755341351032,0.005726861767470837,-0.048258353024721146
1760285887476066800,4.18906689453125,0.0012980886967852712,0.018555032089352608,-0.025656340643763542
1760285887486067000,4.19906689453125,0.00985020212829113,0.025274548679590225,-0.005497787147760391
1760285887496066800,4.20906689453125,0.011682798154652119,0.012446379289031029,0.005497787147760391
1760285887506067000,4.21906689453125,0.009239336475729942,-0.004046982154250145,0.00366519158706069
1760285887516066800,4.22906689453125,0.004352414980530739,-0.015042556449770927,-0.00733038317412138
1760285887526067000,4.23906689453125,-0.005421428941190243,-0.033368512988090515,-0.028099801391363144
1760285887536066800,4.24906689453125,-0.011530081741511822,-0.03153591975569725,-0.03848451003432274
1760285887546066700,4.259066650390625,-0.018249599263072014,-0.013209961354732513,-0.04092797264456749
1760285887556066800,4.26906689453125,-0.02496911771595478,0.005726861767470837,-0.029932396486401558
1760285887566066700,4.279066650390625,-0.02802344225347042,0.018555032089352608,-0.01466076634824276
1760285887576066800,4.28906689453125,-0.029856039211153984,0.018555032089352608,0
1760285887586066700,4.299066650390625,-0.03413209691643715,0.007559457328170538,0.005497787147760391
1760285887596066800,4.30906689453125,-0.038408152759075165,-0.018096882849931717,0.007941247895359993
1760285887606066700,4.319066650390625,-0.035964690148830414,-0.021762074902653694,0.00855211354792118
1760285887616066800,4.32906689453125,-0.032910365611314774,-0.02298380434513092,0.00855211354792118
1760285887626067000,4.33906689453125,-0.02863430790603161,-0.022372938692569733,0.004886921960860491
1760285887636066800,4.34906689453125,-0.02252565510571003,-0.012599095702171326,0
1760285887646067000,4.35906689453125,-0.021303925663232803,-0.008323038928210735,-0.006108652334660292
1760285887656066800,4.36906689453125,-0.023136520758271217,-0.01992947794497013,-0.015882495790719986
1760285887666067000,4.37906689453125,-0.027412578463554382,-0.10117455571889877,-0.0354301854968071
1760285887676066800,4.38906689453125,-0.03474296256899834,-0.17631098628044128,-0.04214970022439957
1760285887686066700,4.399066650390625,-0.03352123126387596,-0.21784982085227966,-0.03481931984424591
1760285887696066800,4.40906689453125,-0.02802344225347042,-0.22334760427474976,-0.005497787147760391
1760285887706066700,4.419066650390625,-0.01947133056819439,-0.19341520965099335,0.03237585723400116
1760285887716066800,4.42906689453125,-0.010308351367712021,-0.15309810638427734,0.07024950534105301
1760285887726066700,4.439066650390625,-0.010919216088950634,-0.08345946669578552,0.10812314599752426
1760285887736066800,4.44906689453125,-0.020693060010671616,-0.07735081017017365,0.1264491081237793
1760285887746066700,4.459066650390625,-0.0316886343061924,-0.0846811980009079,0.1313360333442688
1760285887756066800,4.46906689453125,-0.032910365611314774,-0.08407033234834671,0.11667526513338089
1760285887766066700,4.479066650390625,-0.02496911771595478,-0.07796167582273483,0.08918632566928864
1760285887776066800,4.48906689453125,-0.014584408141672611,-0.059635721147060394,0.05192354694008827
1760285887786066700,4.499066650390625,-0.006032294128090143,-0.03459024429321289,0.009162978269159794
1760285887796066800,4.50906689453125,0.0006872233934700489,-0.008323038928210735,-0.04214970022439957
1760285887806066700,4.519066650390625,0.0012980886967852712,-0.0022143865935504436,-0.05742133408784866
1760285887816066800,4.52906689453125,0.004352414980530739,0.002672535367310047,-0.05314527451992035
1760285887826066700,4.539066650390625,0.006795875728130341,0.0014508049935102463,-0.04153883829712868
1760285887836066800,4.54906689453125,0.00557414535433054,-0.004657847341150045,-0.025045474991202354
1760285887846066700,4.559066650390625,0.00618501054123044,-0.004046982154250145,-0.01038470957428217
1760285887856066800,4.56906689453125,0.004352414980530739,0.0038942659739404917,-0.003054326167330146
1760285887866066700,4.579066650390625,-0.0017562375869601965,0.004505131393671036,-0.01038470957428217
1760285887876066800,4.58906689453125,-0.006643159314990044,-0.002825251780450344,-0.02076941914856434
1760285887886066700,4.599066650390625,-0.007864889688789845,-0.006490443367511034,-0.028099801391363144
1760285887896066800,4.60906689453125,-0.006643159314990044,-0.015042556449770927,-0.029932396486401558
1760285887906067000,4.61906689453125,-0.0035888333804905415,-0.018096882849931717,-0.03481931984424591
1760285887916066800,4.62906689453125,0.0012980886967852712,-0.010766499675810337,-0.042760565876960754
1760285887926066700,4.639066650390625,0.00557414535433054,-0.0009926559869199991,-0.04703662544488907
1760285887936066800,4.64906689453125,0.011071932502090931,-0.015653422102332115,-0.03420845419168472
1760285887946066700,4.659066650390625,0.017180584371089935,-0.03275764733552933,-0.018936822190880775
1760285887956066800,4.66906689453125,0.020234910771250725,-0.03703370690345764,-0.005497787147760391
1760285887966066700,4.679066650390625,0.0190131813287735,-0.0339793786406517,0.001832595793530345
1760285887976066800,4.68906689453125,0.016569720581173897,-0.02603813074529171,0.0006108652451075613
1760285887986066700,4.699066650390625,0.017180584371089935,-0.01748601719737053,-0.007941247895359993
1760285887996066800,4.70906689453125,0.014737123623490334,-0.016264287754893303,-0.01466076634824276
1760285888006066700,4.719066650390625,0.004352414980530739,-0.011988230049610138,-0.015271631069481373
1760285888016066800,4.72906689453125,-0.002367102773860097,-0.010766499675810337,-0.012217304669320583
1760285888026066700,4.739066650390625,-0.009697485715150833,-0.015653422102332115,-0.006108652334660292
1760285888036066800,4.74906689453125,-0.01702786795794964,-0.02054034359753132,0
1760285888046066700,4.759066650390625,-0.017638733610510826,-0.011377365328371525,0.00366519158706069
1760285888056066800,4.76906689453125,-0.013973542489111423,0.0032834007870405912,0.0024434609804302454
1760285888066066700,4.779066650390625,-0.007864889688789845,0.01366810966283083,-0.0024434609804302454
1760285888076066800,4.78906689453125,-0.0017562375869601965,0.007559457328170538,0.0006108652451075613
1760285888086066700,4.799066650390625,0.00007635815563844517,-0.0022143865935504436,0.006719517521560192
1760285888096066800,4.80906689453125,0.0031306843739002943,-0.011377365328371525,0.009162978269159794
1760285888106066700,4.819066650390625,0.009239336475729942,-0.02298380434513092,0.006108652334660292
1760285888116066800,4.82906689453125,0.012293662875890732,-0.0339793786406517,0.006108652334660292
1760285888126066700,4.839066650390625,0.013515393249690533,-0.04375322163105011,0.006719517521560192
1760285888136066800,4.84906689453125,0.014737123623490334,-0.04253149405121803,0.007941247895359993
1760285888146066700,4.859066650390625,0.00862847175449133,-0.04558581858873367,0.00855211354792118
1760285888156066800,4.86906689453125,0.00007635815563844517,-0.04314235970377922,0.012217304669320583
1760285888166066700,4.879066650390625,0.0012980886967852712,0.031383201479911804,0.016493361443281174
1760285888176066800,4.88906689453125,0.020234910771250725,0.08086328953504562,-0.004886921960860491
1760285888186066700,4.899066650390625,0.032452214509248734,0.06864598393440247,-0.025045474991202354
1760285888196066800,4.90906689453125,0.029397889971733093,0.04909829422831535,-0.04153883829712868
1760285888206066700,4.919066650390625,0.014737123623490334,-0.0034361169673502445,-0.04153883829712868
1760285888216066800,4.92906689453125,-0.018249599263072014,-0.08162686973810196,-0.012828170321881771
1760285888226066700,4.939066650390625,-0.03352123126387596,-0.09750936180353165,0.00855211354792118
1760285888236066800,4.94906689453125,-0.035353824496269226,-0.08223773539066315,0.02382374368607998
1760285888246066700,4.959066650390625,-0.026190847158432007,-0.041920628398656845,0.031154127791523933
1760285888256066800,4.96906689453125,-0.012751812115311623,-0.011377365328371525,0.03420845419168472
1760285888266066700,4.979066650390625,-0.007254024967551231,-0.004657847341150045,0.03298672288656235
1760285888276066800,4.98906689453125,-0.010919216088950634,-0.014431691728532314,0.027488935738801956
1760285888286066700,4.999066650390625,-0.02191479131579399,-0.03825543448328972,0.014049900695681572
1760285888296066800,5.00906689453125,-0.023747386410832405,-0.03275764733552933,-0.0012217304902151227
1760285888306066700,5.019066650390625,-0.02496911771595478,-0.012599095702171326,-0.01771509274840355
1760285888316066800,5.02906689453125,-0.02252565510571003,0.006337726954370737,-0.03298672288656235
1760285888326066700,5.039066650390625,-0.012751812115311623,0.022831087931990623,-0.04214970022439957
1760285888336066800,5.04906689453125,-0.0017562375869601965,0.02955060638487339,-0.045204028487205505
1760285888346066700,5.059066650390625,0.0031306843739002943,0.013057244941592216,-0.030543262138962746
1760285888356066800,5.06906689453125,-0.0017562375869601965,0.002672535367310047,-0.018936822190880775
1760285888366066700,5.079066650390625,-0.012140946462750435,0.00022907447419129312,-0.005497787147760391
1760285888376066800,5.08906689453125,-0.024358252063393593,-0.0009926559869199991,0.0024434609804302454
1760285888386066700,5.099066650390625,-0.032910365611314774,0.002672535367310047,0.00427605677396059
1760285888396066800,5.10906689453125,-0.032910365611314774,0.016111571341753006,-0.005497787147760391
1760285888406066700,5.119066650390625,-0.023747386410832405,0.02955060638487339,-0.02076941914856434
1760285888416066800,5.12906689453125,-0.013362676836550236,0.02955060638487339,-0.03787364438176155
1760285888426066700,5.139066650390625,-0.011530081741511822,0.02710714563727379,-0.03848451003432274
1760285888436066800,5.14906689453125,-0.014584408141672611,0.018555032089352608,-0.027488935738801956
1760285888446066700,5.159066650390625,-0.020082194358110428,0.000839939690195024,-0.009773843921720982
1760285888456066800,5.16906689453125,-0.02802344225347042,-0.015653422102332115,0.01160643994808197
1760285888466066700,5.179066650390625,-0.032910365611314774,-0.018096882849931717,0.031154127791523933
1760285888476066800,5.18906689453125,-0.03413209691643715,-0.008323038928210735,0.04581489413976669
1760285888486066700,5.199066650390625,-0.03718642145395279,0.000839939690195024,0.054367005825042725
1760285888496066800,5.20906689453125,-0.04634939879179001,-0.006490443367511034,0.05925392732024193
1760285888506066700,5.219066650390625,-0.05795583873987198,-0.024205535650253296,0.06536258012056351
1760285888516066800,5.22906689453125,-0.0567341111600399,-0.04130976274609566,0.06536258012056351
1760285888536066800,5.24906689453125,-0.03413209691643715,-0.030314188450574875,0.045204028487205505
1760285888546066700,5.259066650390625,-0.02496911771595478,-0.02054034359753132,0.02871066704392433
1760285888556066800,5.26906689453125,-0.02496911771595478,-0.02298380434513092,0.02076941914856434
1760285888566066700,5.279066650390625,-0.02802344225347042,-0.02298380434513092,0.021991148591041565
1760285888576066800,5.28906689453125,-0.0316886343061924,-0.023594669997692108,0.02626720629632473
1760285888586066700,5.299066650390625,-0.03352123126387596,-0.019318614155054092,0.02932153269648552
1760285888596066800,5.30906689453125,-0.029245173558592796,-0.007712173741310835,0.029932396486401558
1760285888606066700,5.319066650390625,-0.021303925663232803,0.005726861767470837,0.02626720629632473
1760285888616066800,5.32906689453125,-0.012751812115311623,0.011224648915231228,0.01466076634824276
1760285888626066700,5.339066650390625,-0.004810563754290342,-0.0016035212902352214,0.00366519158706069
1760285888636066800,5.34906689453125,-0.0029779679607599974,-0.014431691728532314,0.00427605677396059
1760285888646066700,5.359066650390625,0.00007635815563844517,-0.012599095702171326,0.006719517521560192
1760285888656066800,5.36906689453125,0.00862847175449133,-0.009544769302010536,0.004886921960860491
1760285888666066700,5.379066650390625,0.0190131813287735,-0.007712173741310835,-0.006719517521560192
1760285888676066800,5.38906689453125,0.028787024319171906,-0.0009926559869199991,-0.025045474991202354
1760285888686066700,5.399066650390625,0.034895677119493484,0.0038942659739404917,-0.039095375686883926
1760285888696066800,5.40906689453125,0.031230485066771507,0.002672535367310047,-0.04581489413976669
1760285888706066700,5.419066650390625,0.023289237171411514,0.005726861767470837,-0.045204028487205505
1760285888716066800,5.42906689453125,0.01290452852845192,0.014278975315392017,-0.04214970022439957
1760285888726066700,5.439066650390625,0.002519819187000394,0.018555032089352608,-0.04092797264456749
1760285888736066800,5.44906689453125,-0.004199698567390442,0.011835514567792416,-0.03726277872920036
1760285888746066700,5.459066650390625,-0.0029779679607599974,-0.0009926559869199991,-0.03420845419168472
1760285888756066800,5.46906689453125,0.0012980886967852712,-0.006490443367511034,-0.02871066704392433
1760285888766066700,5.479066650390625,0.011071932502090931,-0.00038179077091626823,-0.025656340643763542
1760285888776066800,5.48906689453125,0.01290452852845192,0.005726861767470837,-0.02687807008624077
1760285888786066700,5.499066650390625,0.008017606101930141,0.01488984003663063,-0.021991148591041565
1760285888796066800,5.50906689453125,-0.0035888333804905415,0.019776761531829834,-0.014049900695681572
1760285888806066700,5.519066650390625,-0.017638733610510826,0.01061378326267004,-0.0024434609804302454
1760285888816066800,5.52906689453125,-0.02802344225347042,-0.007712173741310835,0.00427605677396059
1760285888826066700,5.539066650390625,-0.029245173558592796,-0.018707748502492905,0.001832595793530345
1760285888836066800,5.54906689453125,-0.020082194358110428,-0.010766499675810337,-0.007941247895359993
1760285888846066700,5.559066650390625,-0.010308351367712021,0.0038942659739404917,-0.01710422709584236
1760285888856066800,5.56906689453125,-0.0035888333804905415,0.015500705689191818,-0.02076941914856434
1760285888866066700,5.579066650390625,-0.002367102773860097,0.01488984003663063,-0.010995574295520782
1760285888876066800,5.58906689453125,-0.0017562375869601965,0.0032834007870405912,0.00427605677396059
1760285888886066700,5.599066650390625,-0.004199698567390442,-0.01748601719737053,0.02321287989616394
1760285888896066800,5.60906689453125,-0.012140946462750435,-0.026648996397852898,0.03787364438176155
1760285888906066700,5.619066650390625,-0.02557998150587082,0.05093089118599892,-0.039095375686883926
1760285888916066800,5.62906689453125,-0.03352123126387596,0.025274548679590225,-0.05192354694008827
1760285888926066700,5.639066650390625,-0.021303925663232803,0.048487428575754166,-0.04642575979232788
1760285888936066800,5.64906689453125,0.004352414980530739,0.05826127156615257,-0.036041051149368286
1760285888946066700,5.659066650390625,0.008017606101930141,0.03871358558535576,-0.024434609338641167
1760285888956066800,5.66906689453125,-0.006032294128090143,0.04726569727063179,-0.01710422709584236
1760285888966066700,5.679066650390625,-0.010919216088950634,0.07964155822992325,-0.00855211354792118
1760285888976066800,5.68906689453125,0.00557414535433054,0.07597636431455612,0.0024434609804302454
1760285888986066700,5.699066650390625,0.014737123623490334,0.05093089118599892,0.0024434609804302454
1760285888996066800,5.70906689453125,0.020845776423811913,0.024663684889674187,-0.001832595793530345
1760285889006066700,5.719066650390625,0.028176158666610718,0.000839939690195024,-0.007941247895359993
1760285889016066800,5.72906689453125,0.03367394581437111,-0.02298380434513092,-0.018936822190880775
1760285889026066700,5.739066650390625,0.03611740842461586,-0.03275764733552933,-0.025045474991202354
1760285889036066800,5.74906689453125,0.031841352581977844,-0.015042556449770927,-0.027488935738801956
1760285889046066700,5.759066650390625,0.02451096847653389,0.004505131393671036,-0.02687807008624077
1760285889056066800,5.76906689453125,0.0190131813287735,0.012446379289031029,-0.02626720629632473
1760285889066066700,5.779066650390625,0.017791450023651123,0.000839939690195024,-0.028099801391363144
1760285889076066800,5.78906689453125,0.0190131813287735,-0.019318614155054092,-0.02932153269648552
1760285889086066700,5.799066650390625,0.023289237171411514,-0.035811975598335266,-0.025656340643763542
1760285889096066800,5.80906689453125,0.026343563571572304,-0.04008803144097328,-0.01466076634824276
1760285889106066700,5.819066650390625,0.025732697919011116,-0.026648996397852898,0.007941247895359993
1760285889116066800,5.82906689453125,0.017791450023651123,-0.022372938692569733,0.024434609338641167
1760285889126066700,5.839066650390625,0.00557414535433054,-0.03214678168296814,0.03420845419168472
1760285889136066800,5.84906689453125,-0.010919216088950634,-0.05291620269417763,0.039706241339445114
1760285889146066700,5.859066650390625,-0.02252565510571003,-0.06879869848489761,0.04764748737215996
1760285889156066800,5.86906689453125,-0.02496911771595478,-0.07063129544258118,0.05497787147760391
1760285889166066700,5.879066650390625,-0.02191479131579399,-0.07612907886505127,0.07330382615327835
1760285889176066800,5.88906689453125,-0.02252565510571003,-0.08529205620288849,0.10506882518529892
1760285889186066700,5.899066650390625,-0.02802344225347042,-0.0492510087788105,0.09285151958465576
1760285889196066800,5.90906689453125,-0.027412578463554382,-0.012599095702171326,0.05742133408784866
1760285889206066700,5.919066650390625,-0.02191479131579399,-0.0009926559869199991,0.02015855349600315
1760285889216066800,5.92906689453125,-0.021303925663232803,-0.007712173741310835,-0.009773843921720982
1760285889226066700,5.939066650390625,-0.03413209691643715,-0.019318614155054092,-0.031154127791523933
1760285889236066800,5.94906689453125,-0.044516805559396744,-0.026648996397852898,-0.0403171069920063
1760285889246066700,5.959066650390625,-0.03962988406419754,-0.02054034359753132,-0.031154127791523933
1760285889256066800,5.96906689453125,-0.030466904863715172,-0.010155634954571724,-0.01160643994808197
1760285889266066700,5.979066650390625,-0.02252565510571003,0.0038942659739404917,0.01466076634824276
1760285889276066800,5.98906689453125,-0.014584408141672611,0.01366810966283083,0.033597588539123535
1760285889286066700,5.999066650390625,-0.006643159314990044,0.014278975315392017,0.03848451003432274
1760285889296066800,6.00906689453125,-0.007254024967551231,0.010002918541431427,0.027488935738801956
1760285889306066700,6.019066650390625,-0.011530081741511822,-0.00038179077091626823,0.009162978269159794
1760285889316066800,6.02906689453125,-0.017638733610510826,-0.024205535650253296,-0.018325956538319588
1760285889326066700,6.039066650390625,-0.01947133056819439,-0.035811975598335266,-0.02626720629632473
1760285889336066800,6.04906689453125,-0.01702786795794964,-0.044974952936172485,-0.022602014243602753
1760285889346066700,6.059066650390625,-0.013362676836550236,-0.041920628398656845,-0.010995574295520782
1760285889356066800,6.06906689453125,-0.0035888333804905415,-0.027259862050414085,0.0012217304902151227
1760285889366066700,6.079066650390625,0.00862847175449133,-0.010155634954571724,0.00733038317412138
1760285889376066800,6.08906689453125,0.012293662875890732,0.08819366991519928,-0.06780604273080826
1760285889386066700,6.099066650390625,-0.015195272862911224,0.03199406713247299,-0.09346238523721695
1760285889396066800,6.10906689453125,-0.018249599263072014,0.018555032089352608,-0.06536258012056351
1760285889406066700,6.119066650390625,0.004352414980530739,0.017333300784230232,-0.045204028487205505
1760285889416066800,6.12906689453125,0.00862847175449133,-0.0071013085544109344,-0.03298672288656235
1760285889426066700,6.139066650390625,-0.009697485715150833,-0.0071013085544109344,-0.03176499158143997
1760285889436066800,6.14906689453125,-0.024358252063393593,0.016722436994314194,-0.03848451003432274
1760285889446066700,6.159066650390625,-0.023136520758271217,0.027718011289834976,-0.04337143152952194
1760285889456066800,6.16906689453125,-0.006643159314990044,0.025885414332151413,-0.039706241339445114
1760285889466066700,6.179066650390625,0.00618501054123044,0.02344195358455181,-0.0354301854968071
1760285889476066800,6.18906689453125,0.01412625890225172,0.017333300784230232,-0.029932396486401558
1760285889486066700,6.199066650390625,0.020845776423811913,0.005115996580570936,-0.02321287989616394
1760285889496066800,6.20906689453125,0.022678371518850327,-0.0009926559869199991,-0.01466076634824276
1760285889506066700,6.219066650390625,0.02451096847653389,-0.005879578180611134,-0.01160643994808197
1760285889516066800,6.22906689453125,0.023900102823972702,-0.008323038928210735,-0.019547687843441963
1760285889526066700,6.239066650390625,0.023289237171411514,-0.005879578180611134,-0.036651913076639175
1760285889536066800,6.24906689453125,0.022678371518850327,-0.005879578180611134,-0.04153883829712868
1760285889546066700,6.259066650390625,0.020234910771250725,-0.008933904580771923,-0.03176499158143997
1760285889556066800,6.26906689453125,0.019624045118689537,-0.011988230049610138,-0.01710422709584236
1760285889566066700,6.279066650390625,0.020845776423811913,-0.005268712528049946,-0.00366519158706069
1760285889576066800,6.28906689453125,0.020845776423811913,-0.0016035212902352214,0.007941247895359993
1760285889586066700,6.299066650390625,0.025121834129095078,-0.0016035212902352214,0.016493361443281174
1760285889596066800,6.30906689453125,0.03306308016180992,-0.0034361169673502445,0.021991148591041565
1760285889606066700,6.319066650390625,0.03367394581437111,-0.008933904580771923,0.016493361443281174
1760285889616066800,6.32906689453125,0.03000875562429428,-0.014431691728532314,0.003054326167330146
1760285889626066700,6.339066650390625,0.026343563571572304,-0.022372938692569733,-0.013439035043120384
1760285889636066800,6.34906689453125,0.0214566420763731,-0.022372938692569733,-0.02321287989616394
1760285889646066700,6.359066650390625,0.01840231567621231,-0.010766499675810337,-0.028099801391363144
1760285889656066800,6.36906689453125,0.015347989276051521,-0.0071013085544109344,-0.028099801391363144
1760285889666067000,6.37906689453125,0.00862847175449133,-0.0071013085544109344,-0.021991148591041565
1760285889676066800,6.38906689453125,-0.0029779679607599974,-0.004046982154250145,-0.006719517521560192
1760285889686066700,6.399066650390625,-0.01947133056819439,-0.010155634954571724,0.01466076634824276
1760285889696066800,6.40906689453125,-0.032910365611314774,-0.02603813074529171,0.03848451003432274
1760285889706066700,6.419066650390625,-0.038408152759075165,-0.04314235970377922,0.05742133408784866
1760285889716066800,6.42906689453125,-0.03474296256899834,-0.04986187443137169,0.06841690838336945
1760285889726066700,6.439066650390625,-0.01702786795794964,-0.04375322163105011,0.0757472887635231
1760285889736066800,6.44906689453125,-0.010919216088950634,-0.04375322163105011,0.07880161702632904
1760285889746066700,6.459066650390625,-0.018249599263072014,-0.04864014685153961,0.08246681094169617
1760285889756066800,6.46906689453125,-0.029245173558592796,-0.035811975598335266,0.07452555745840073
1760285889766066700,6.479066650390625,-0.035353824496269226,-0.015042556449770927,0.05253441259264946
1760285889776066800,6.48906689453125,-0.03413209691643715,0.0020616701804101467,0.02321287989616394
1760285889786066700,6.499066650390625,-0.032299499958753586,0.014278975315392017,-0.003054326167330146
1760285889796066800,6.50906689453125,-0.02557998150587082,0.012446379289031029,-0.02626720629632473
1760285889806066700,6.519066650390625,-0.015806138515472412,-0.004657847341150045,-0.02382374368607998
1760285889816066800,6.52906689453125,-0.006643159314990044,-0.033368512988090515,-0.009773843921720982
1760285889826066700,6.539066650390625,-0.0011453722836449742,-0.044974952936172485,0.00733038317412138
1760285889836066800,6.54906689453125,0.00557414535433054,-0.035811975598335266,0.013439035043120384
1760285889846066700,6.559066650390625,0.01290452852845192,-0.019318614155054092,0.01160643994808197
1760285889856066800,6.56906689453125,0.014737123623490334,0.0014508049935102463,0.006108652334660292
1760285889866066700,6.579066650390625,0.0214566420763731,0.03321579843759537,-0.00427605677396059
1760285889876066800,6.58906689453125,0.029397889971733093,0.039935316890478134,-0.014049900695681572
1760285889886067000,6.59906689453125,0.03856086730957031,0.03504839166998863,-0.028099801391363144
1760285889896066800,6.60906689453125,0.046502117067575455,0.017333300784230232,-0.03420845419168472
1760285889906067000,6.61906689453125,0.04711298272013664,-0.0009926559869199991,-0.033597588539123535
1760285889916066800,6.62906689453125,0.046502117067575455,-0.013820826075971127,-0.03481931984424591
1760285889926066700,6.639066650390625,0.04466952010989189,-0.013820826075971127,-0.04092797264456749
1760285889936066800,6.64906689453125,0.04772384837269783,0.0014508049935102463,-0.04337143152952194
1760285889946066700,6.659066650390625,0.049556441605091095,0.0032834007870405912,-0.0354301854968071
1760285889956066800,6.66906689453125,0.052610769867897034,0.0020616701804101467,-0.02626720629632473
1760285889966066700,6.679066650390625,0.05322163552045822,0.00939205288887024,-0.015271631069481373
1760285889976066800,6.68906689453125,0.05627596005797386,0.019165897741913795,-0.00855211354792118
1760285889986066700,6.699066650390625,0.058108557015657425,0.016722436994314194,-0.0006108652451075613
1760285889996066800,6.70906689453125,0.06360634416341782,0.013057244941592216,0.005497787147760391
1760285890006066700,6.719066650390625,0.055054228752851486,0.019165897741913795,-0.0012217304902151227
1760285890016066800,6.72906689453125,0.03856086730957031,0.004505131393671036,-0.01771509274840355
1760285890026066700,6.739066650390625,0.02756529487669468,-0.016264287754893303,-0.03176499158143997
1760285890036066800,6.74906689453125,0.029397889971733093,-0.021762074902653694,-0.04153883829712868
1760285890046066700,6.759066650390625,0.04528038576245308,-0.021762074902653694,-0.05864306539297104
1760285890056066800,6.76906689453125,0.06238461285829544,-0.018707748502492905,-0.06963863968849182
1760285890066066700,6.779066650390625,0.0794888436794281,-0.007712173741310835,-0.06169738993048668
1760285890076066800,6.78906689453125,0.0898735523223877,-0.00038179077091626823,-0.013439035043120384
1760285890086066700,6.799066650390625,0.084375761449337,-0.00038179077091626823,0.027488935738801956
1760285890096066800,6.80906689453125,0.0794888436794281,0.00022907447419129312,0.05925392732024193
1760285890106066700,6.819066650390625,0.07399105280637741,0.0020616701804101467,0.07330382615327835
1760285890116066800,6.82906689453125,0.07582364976406097,0.022220224142074585,0.06902777403593063
1760285890126066700,6.839066650390625,0.08804095536470413,0.060704734176397324,0.06169738993048668
1760285890136066800,6.84906689453125,0.10086912661790848,0.08819366991519928,0.06475171446800232
1760285890146066700,6.859066650390625,0.11308643221855164,0.0918588638305664,0.09529497474431992
1760285890156066800,6.86906689453125,0.12835806608200073,0.06803511828184128,0.10445795953273773
1760285890166066700,6.879066650390625,0.1356884390115738,0.052152618765830994,0.09896016865968704
1760285890176066800,6.88906689453125,0.12713633477687836,0.05276348441839218,0.08368854224681854
1760285890186066700,6.899066650390625,0.10209085047245026,0.054596081376075745,0.06658431142568588
1760285890196066800,6.90906689453125,0.06604980677366257,0.0466548316180706,0.045204028487205505
1760285890206066700,6.919066650390625,0.03000875562429428,0.028939740732312202,0.018325956538319588
1760285890216066800,6.92906689453125,-0.009086620062589645,0.00022907447419129312,-0.029932396486401558
1760285890226066700,6.939066650390625,-0.03352123126387596,-0.08529205620288849,0.024434609338641167
1760285890236066800,6.94906689453125,-0.04329507425427437,-0.1506546437740326,0.13011430203914642
1760285890246066700,6.959066650390625,-0.046960264444351196,-0.16775886714458466,0.22296582162380219
1760285890256066800,6.96906689453125,-0.03962988406419754,-0.14393512904644012,0.2932153046131134
1760285890266066700,6.979066650390625,-0.02252565510571003,-0.07063129544258118,0.3280346393585205
1760285890276066800,6.98906689453125,-0.0164170041680336,0.01794416643679142,0.2981022298336029
1760285890286066700,6.999066650390625,-0.004199698567390442,0.03260493278503418,0.13072516024112701
1760285890296066800,7.00906689453125,0.00557414535433054,0.01794416643679142,-0.02932153269648552
1760285890306066700,7.019066650390625,0.016569720581173897,0.04054617881774902,-0.20036379992961884
1760285890316066800,7.02906689453125,0.0391717329621315,0.07658722996711731,-0.35735616087913513
1760285890326066700,7.039066650390625,0.061162881553173065,0.06375905871391296,-0.4605923891067505
1760285890336066800,7.04906689453125,0.07338018715381622,-0.0034361169673502445,-0.48197266459465027
1760285890346066700,7.059066650390625,0.0012980886967852712,-0.10911580175161362,-0.36529740691185
1760285890356066800,7.06906689453125,-0.046960264444351196,-0.12255483865737915,-0.24617868661880493
1760285890366066700,7.079066650390625,-0.05978843569755554,-0.07002042979001999,-0.1264491081237793
1760285890376066800,7.08906689453125,-0.041462477296590805,-0.004657847341150045,-0.01771509274840355
1760285890406066700,7.119066650390625,0.06299547851085663,0.028939740732312202,0.09346238523721695
1760285890426066700,7.139066650390625,0.064217209815979,0.011224648915231228,-0.029932396486401558
1760285890446066700,7.159066650390625,0.032452214509248734,-0.0290924571454525,-0.09040805697441101
1760285890456066800,7.16906689453125,0.022067507728934288,-0.022372938692569733,-0.0910189226269722
1760285890466066700,7.179066650390625,0.016569720581173897,-0.016264287754893303,-0.07635815441608429
1760285890476066800,7.18906689453125,0.011071932502090931,-0.007712173741310835,-0.05375614017248154
1760285890486066700,7.199066650390625,0.004352414980530739,0.012446379289031029,-0.02015855349600315
1760285890496066800,7.20906689453125,-0.0011453722836449742,0.01794416643679142,0.0024434609804302454
1760285890506066700,7.219066650390625,-0.012140946462750435,0.002672535367310047,0.02871066704392433
1760285890516066800,7.22906689453125,-0.029856039211153984,-0.024205535650253296,0.04948008432984352
1760285890526066700,7.239066650390625,-0.047571130096912384,-0.04986187443137169,0.056810468435287476
1760285890536066800,7.24906689453125,-0.05734497308731079,-0.06269004940986633,0.039095375686883926
1760285890546066700,7.259066650390625,-0.053068917244672775,-0.05169447138905525,0.012217304669320583
1760285890556066800,7.26906689453125,-0.038408152759075165,-0.022372938692569733,-0.018936822190880775
1760285890566066700,7.279066650390625,-0.032910365611314774,-0.011377365328371525,-0.027488935738801956
1760285890576066800,7.28906689453125,-0.026801712810993195,-0.012599095702171326,-0.02626720629632473
1760285890586066700,7.299066650390625,-0.02191479131579399,-0.008933904580771923,-0.010995574295520782
1760285890596066800,7.30906689453125,-0.0164170041680336,-0.005268712528049946,0.01160643994808197
1760285890606066700,7.319066650390625,-0.010919216088950634,-0.005268712528049946,0.031154127791523933
1760285890616066800,7.32906689453125,-0.0017562375869601965,-0.002825251780450344,0.04153883829712868
1760285890626066700,7.339066650390625,0.00985020212829113,-0.008323038928210735,0.036651913076639175
1760285890636066800,7.34906689453125,0.01595885492861271,-0.01992947794497013,0.024434609338641167
1760285890646066700,7.359066650390625,0.01412625890225172,-0.03275764733552933,0.01038470957428217
1760285890656066800,7.36906689453125,0.004352414980530739,-0.04130976274609566,-0.014049900695681572
1760285890666066700,7.379066650390625,-0.012751812115311623,-0.035811975598335266,-0.036651913076639175
1760285890676066800,7.38906689453125,-0.02802344225347042,-0.02054034359753132,-0.04642575979232788
1760285890686066700,7.399066650390625,-0.035964690148830414,-0.005268712528049946,-0.04398229718208313
1760285890696066800,7.40906689453125,-0.03718642145395279,0.00022907447419129312,-0.021380282938480377
1760285890706066700,7.419066650390625,-0.03718642145395279,-0.004046982154250145,-0.005497787147760391
1760285890716066800,7.42906689453125,-0.03718642145395279,0.00022907447419129312,0.009773843921720982
1760285890726066700,7.439066650390625,-0.03901901841163635,0.010002918541431427,0.018936822190880775
1760285890736066800,7.44906689453125,-0.03413209691643715,0.025274548679590225,0.01771509274840355
1760285890746066700,7.459066650390625,-0.023747386410832405,0.03260493278503418,0.012217304669320583
1760285890756066800,7.46906689453125,-0.010919216088950634,0.024052819237113,0.0024434609804302454
1760285890766066700,7.479066650390625,0.0037415495608001947,-0.0016035212902352214,-0.021991148591041565
1760285890776066800,7.48906689453125,0.010461067780852318,-0.022372938692569733,-0.03726277872920036
1760285890786066700,7.499066650390625,0.00862847175449133,-0.03703370690345764,-0.04703662544488907
1760285890796066800,7.50906689453125,0.0019089538836851716,-0.04069889709353447,-0.048258353024721146
1760285890806066700,7.519066650390625,-0.0011453722836449742,-0.03764457255601883,-0.04459316283464432
1760285890816066800,7.52906689453125,-0.0017562375869601965,-0.03764457255601883,-0.033597588539123535
1760285890826066700,7.539066650390625,-0.006032294128090143,-0.030314188450574875,-0.02015855349600315
1760285890836066800,7.54906689453125,-0.017638733610510826,-0.01687515154480934,0.009773843921720982
1760285890846066700,7.559066650390625,-0.02252565510571003,-0.015653422102332115,0.027488935738801956
1760285890856066800,7.56906689453125,-0.026801712810993195,-0.019318614155054092,0.039706241339445114
1760285890866066700,7.579066650390625,-0.029245173558592796,-0.019318614155054092,0.04398229718208313
1760285890876066800,7.58906689453125,-0.026801712810993195,-0.01992947794497013,0.0354301854968071
1760285890886066700,7.599066650390625,-0.024358252063393593,-0.015042556449770927,0.021380282938480377
1760285890896066800,7.60906689453125,-0.02252565510571003,-0.0071013085544109344,0.01160643994808197
1760285890906066700,7.619066650390625,-0.020693060010671616,0.006337726954370737,0.012217304669320583
1760285890926066700,7.639066650390625,-0.02802344225347042,-0.010766499675810337,0.015882495790719986
1760285890936066800,7.64906689453125,-0.029856039211153984,-0.018707748502492905,0.00733038317412138
1760285890946066700,7.659066650390625,-0.027412578463554382,-0.01748601719737053,-0.001832595793530345
1760285890956066800,7.66906689453125,-0.026190847158432007,-0.025427265092730522,-0.005497787147760391
1760285890966066700,7.679066650390625,-0.02802344225347042,-0.03275764733552933,-0.009162978269159794
1760285890976066800,7.68906689453125,-0.03779728710651398,-0.029703322798013687,-0.014049900695681572
1760285890986066700,7.699066650390625,-0.041462477296590805,-0.03214678168296814,-0.005497787147760391
1760285890996066800,7.70906689453125,-0.03962988406419754,-0.0290924571454525,0.013439035043120384
1760285891006066700,7.719066650390625,-0.03718642145395279,-0.021151209250092506,0.03298672288656235
1760285891016066800,7.72906689453125,-0.032299499958753586,-0.015653422102332115,0.04764748737215996
1760285891026066700,7.739066650390625,-0.02496911771595478,-0.012599095702171326,0.051312681287527084
1760285891036066800,7.74906689453125,-0.007864889688789845,-0.00038179077091626823,0.036651913076639175
1760285891046066700,7.759066650390625,0.0006872233934700489,0.012446379289031029,0.02382374368607998
1760285891056066800,7.76906689453125,0.006795875728130341,0.03871358558535576,0.015271631069481373
1760285891066066700,7.779066650390625,0.01412625890225172,0.08269587904214859,0.0006108652451075613
1760285891076066800,7.78906689453125,0.0190131813287735,0.11201741546392441,-0.02626720629632473
1760285891086066700,7.799066650390625,0.020234910771250725,0.11201741546392441,-0.05864306539297104
1760285891096066800,7.80906689453125,0.017791450023651123,0.082085020840168,-0.08735372871160507
1760285891106066700,7.819066650390625,0.007406740915030241,0.012446379289031029,-0.09896016865968704
1760285891116066800,7.82906689453125,-0.004810563754290342,-0.03214678168296814,-0.08552113175392151
1760285891126066700,7.839066650390625,-0.0188604649156332,-0.06696610152721405,-0.06352998316287994
1760285891136066800,7.84906689453125,-0.02557998150587082,-0.09567677229642868,-0.03787364438176155
1760285891146066700,7.859066650390625,-0.01947133056819439,-0.10545061528682709,-0.010995574295520782
1760285891156066800,7.86906689453125,-0.006032294128090143,-0.0694095641374588,0.02015855349600315
1760285891166066700,7.879066650390625,0.006795875728130341,-0.01748601719737053,0.03848451003432274
1760285891176066800,7.88906689453125,0.004963280167430639,0.01366810966283083,0.0403171069920063
1760285891186066700,7.899066650390625,-0.009086620062589645,0.005726861767470837,0.03481931984424591
1760285891196066800,7.90906689453125,-0.023136520758271217,-0.011377365328371525,0.030543262138962746
1760285891206066700,7.919066650390625,-0.02557998150587082,-0.021151209250092506,0.02321287989616394
1760285891216066800,7.92906689453125,-0.01947133056819439,-0.024205535650253296,0.01710422709584236
1760285891226066700,7.939066650390625,-0.011530081741511822,-0.02603813074529171,0.013439035043120384
1760285891236066800,7.94906689453125,-0.007864889688789845,-0.0290924571454525,0.015882495790719986
1760285891246066700,7.959066650390625,-0.0017562375869601965,-0.01992947794497013,0.022602014243602753
1760285891256066800,7.96906689453125,0.0012980886967852712,-0.019318614155054092,0.02687807008624077
1760285891266066700,7.979066650390625,0.0019089538836851716,-0.027259862050414085,0.025045474991202354
1760285891276066800,7.98906689453125,0.0012980886967852712,-0.02603813074529171,0.021380282938480377
1760285891286066700,7.999066650390625,0.00007635815563844517,-0.016264287754893303,0.009162978269159794
1760285891296066800,8.00906689453125,-0.005421428941190243,-0.006490443367511034,-0.0012217304902151227
1760285891306066700,8.019066650390625,-0.013362676836550236,0.0032834007870405912,-0.009773843921720982
1760285891316066800,8.02906689453125,-0.018249599263072014,0.02038762718439102,-0.018936822190880775
1760285891326066700,8.039066650390625,-0.014584408141672611,0.030161472037434578,-0.01771509274840355
1760285891336066800,8.04906689453125,-0.009086620062589645,0.03627012297511101,-0.014049900695681572
1760285891346066700,8.059066650390625,-0.004810563754290342,0.02710714563727379,-0.012828170321881771
1760285891356066800,8.06906689453125,-0.004199698567390442,0.007559457328170538,-0.014049900695681572
1760285891366066700,8.079066650390626,-0.008475755341351032,-0.011988230049610138,-0.01466076634824276
1760285891376066800,8.08906689453125,-0.013362676836550236,-0.024205535650253296,-0.013439035043120384
1760285891386066700,8.099066650390625,-0.0188604649156332,-0.010766499675810337,-0.013439035043120384
1760285891396066800,8.10906689453125,-0.02191479131579399,0.008170322515070438,-0.019547687843441963
1760285891406066700,8.119066650390625,-0.023136520758271217,0.024052819237113,-0.028099801391363144
1760285891416066800,8.12906689453125,-0.020693060010671616,0.03321579843759537,-0.03848451003432274
1760285891426066700,8.139066650390625,-0.013362676836550236,0.039935316890478134,-0.04398229718208313
1760285891446066700,8.159066650390624,-0.005421428941190243,0.021609358489513397,-0.0403171069920063
1760285891456066800,8.16906689453125,-0.006643159314990044,0.006337726954370737,-0.02076941914856434
1760285891466066700,8.179066650390626,-0.013362676836550236,-0.00038179077091626823,-0.004886921960860491
1760285891476066800,8.18906689453125,-0.027412578463554382,-0.010155634954571724,0.009162978269159794
1760285891486066700,8.199066650390625,-0.04207334294915199,-0.02054034359753132,0.02321287989616394
1760285891496066800,8.20906689453125,-0.04818199574947357,-0.02603813074529171,0.03237585723400116
1760285891506066700,8.219066650390625,-0.04634939879179001,-0.025427265092730522,0.03237585723400116
1760285891516066800,8.22906689453125,-0.03718642145395279,-0.022372938692569733,0.02626720629632473
1760285891526066700,8.239066650390624,-0.0188604649156332,-0.010155634954571724,0.015882495790719986
1760285891536066800,8.24906689453125,-0.011530081741511822,-0.002825251780450344,0.015271631069481373
1760285891546066700,8.259066650390626,-0.008475755341351032,-0.0009926559869199991,0.019547687843441963
1760285891556066800,8.26906689453125,-0.012140946462750435,-0.009544769302010536,0.024434609338641167
1760285891566066700,8.279066650390625,-0.0188604649156332,-0.01748601719737053,0.02871066704392433
1760285891576066800,8.28906689453125,-0.024358252063393593,-0.02054034359753132,0.03176499158143997
1760285891596066800,8.30906689453125,-0.008475755341351032,-0.011988230049610138,0.025045474991202354
1760285891606066700,8.319066650390624,0.004352414980530739,0.0038942659739404917,0.018936822190880775
1760285891616066800,8.32906689453125,0.00985020212829113,0.013057244941592216,0.01038470957428217
1760285891626066700,8.339066650390626,0.007406740915030241,0.01366810966283083,0.0024434609804302454
1760285891636066800,8.34906689453125,-0.0017562375869601965,0.008170322515070438,0.0012217304902151227
1760285891646066700,8.359066650390625,-0.010919216088950634,0.005115996580570936,0.00855211354792118
1760285891656066800,8.36906689453125,-0.017638733610510826,0.0032834007870405912,0.028099801391363144
1760285891666066700,8.379066650390625,-0.021303925663232803,0.0032834007870405912,0.059864792972803116
1760285891676066800,8.38906689453125,-0.020693060010671616,0.008170322515070438,0.07391469180583954
1760285891686066700,8.399066650390624,-0.020082194358110428,0.016722436994314194,0.0806342139840126
1760285891696066800,8.40906689453125,-0.024358252063393593,0.014278975315392017,0.07941248267889023
1760285891706066700,8.419066650390626,-0.026801712810993195,0.0032834007870405912,0.0708603709936142
1760285891716066800,8.42906689453125,-0.02557998150587082,0.00022907447419129312,0.06230825558304787
1760285891726066700,8.439066650390625,-0.020082194358110428,0.017333300784230232,0.04764748737215996
1760285891736066800,8.44906689453125,-0.020082194358110428,0.028939740732312202,0.04092797264456749
1760285891746066700,8.459066650390625,-0.020693060010671616,0.028328875079751015,0.03237585723400116
1760285891756066800,8.46906689453125,-0.021303925663232803,0.017333300784230232,0.02382374368607998
1760285891766066700,8.479066650390624,-0.02496911771595478,-0.0009926559869199991,0.013439035043120384
1760285891776066800,8.48906689453125,-0.029856039211153984,-0.02054034359753132,0.00366519158706069
1760285891786066700,8.499066650390626,-0.03352123126387596,-0.03459024429321289,-0.0024434609804302454
1760285891796066800,8.50906689453125,-0.029856039211153984,-0.035811975598335266,0.00366519158706069
1760285891806066700,8.519066650390625,-0.02252565510571003,-0.024816401302814484,0.012828170321881771
1760285891816066800,8.52906689453125,-0.005421428941190243,-0.008933904580771923,0.025656340643763542
1760285891826066700,8.539066650390625,0.013515393249690533,0.000839939690195024,0.036041051149368286
1760285891836066800,8.54906689453125,0.028787024319171906,0.004505131393671036,0.048258353024721146
1760285891846066700,8.559066650390625,0.03550654277205467,0.004505131393671036,0.0555887371301651
1760285891856066800,8.56906689453125,0.032452214509248734,0.005115996580570936,0.05619960278272629
1760285891866066700,8.579066650390626,0.020845776423811913,0.011224648915231228,0.03848451003432274
1760285891876066800,8.58906689453125,0.01412625890225172,0.015500705689191818,0.013439035043120384
1760285891886066700,8.599066650390625,0.00985020212829113,0.03443752974271774,-0.01038470957428217
1760285891896066800,8.60906689453125,0.011682798154652119,0.052152618765830994,-0.036041051149368286
1760285891906066700,8.619066650390625,0.009239336475729942,0.04787656292319298,-0.045204028487205505
1760285891916066800,8.62906689453125,0.0006872233934700489,0.018555032089352608,-0.039706241339445114
1760285891926066700,8.639066650390625,-0.007254024967551231,-0.010766499675810337,-0.022602014243602753
1760285891936066800,8.64906689453125,-0.008475755341351032,-0.024816401302814484,0.015882495790719986
1760285891946066700,8.659066650390624,-0.0035888333804905415,-0.01992947794497013,0.03726277872920036
1760285891956066800,8.66906689453125,0.004963280167430639,-0.005268712528049946,0.04886921867728233
1760285891966066700,8.679066650390626,0.008017606101930141,0.007559457328170538,0.05253441259264946
1760285891976066800,8.68906689453125,0.00618501054123044,0.0032834007870405912,0.05253441259264946
1760285891986066700,8.699066650390625,-0.0029779679607599974,-0.010766499675810337,0.05009094998240471
1760285891996066800,8.70906689453125,-0.012751812115311623,-0.023594669997692108,0.042760565876960754
1760285892006066700,8.719066650390625,-0.02191479131579399,-0.038866300135850906,0.03787364438176155
1760285892016066800,8.72906689453125,-0.027412578463554382,-0.04558581858873367,0.03726277872920036
1760285892026066700,8.739066650390624,-0.029245173558592796,-0.04558581858873367,0.03420845419168472
1760285892036066800,8.74906689453125,-0.026801712810993195,-0.03703370690345764,0.02932153269648552
1760285892046066700,8.759066650390626,-0.018249599263072014,-0.023594669997692108,0.027488935738801956
1760285892056066800,8.76906689453125,-0.005421428941190243,-0.02603813074529171,0.02626720629632473
1760285892066066700,8.779066650390625,0.0031306843739002943,-0.03825543448328972,0.02687807008624077
1760285892076066800,8.78906689453125,0.00862847175449133,-0.0694095641374588,0.03237585723400116
1760285892086066700,8.799066650390625,0.006795875728130341,-0.08101600408554077,0.010995574295520782
1760285892096066800,8.80906689453125,0.032452214509248734,-0.00038179077091626823,-0.18997909128665924
1760285892106066700,8.819066650390624,0.012293662875890732,0.142560675740242,-0.2474004179239273
1760285892116066800,8.82906689453125,0.01840231567621231,0.16394096612930298,-0.3017674386501312
1760285892126066700,8.839066650390626,0.007406740915030241,0.1419498175382614,-0.32986724376678467
1760285892136066800,8.84906689453125,-0.06589708477258682,0.1627192348241806,-0.2919935882091522
1760285892146066700,8.859066650390625,-0.17951802909374237,0.17432567477226257,-0.2064724564552307
1760285892156066800,8.86906689453125,-0.20945042371749878,0.1938733607530594,-0.17043140530586243
1760285892166066700,8.879066650390625,-0.21006128191947937,0.21647536754608154,-0.13988813757896423
1760285892176066800,8.88906689453125,-0.19723311066627502,0.21586450934410095,-0.10567969083786011
1760285892186066700,8.899066650390624,-0.1734093725681305,0.19204075634479523,-0.07147123664617538
1760285892196066800,8.90906689453125,-0.14653129875659943,0.12545645236968994,-0.039706241339445114
1760285892206066700,8.919066650390626,-0.11904236674308777,0.05826127156615257,-0.0024434609804302454
1760285892216066800,8.92906689453125,-0.07933612167835236,-0.0022143865935504436,0.03848451003432274
1760285892226066700,8.939066650390625,-0.06467536091804504,-0.03153591975569725,0.03726277872920036
1760285892236066800,8.94906689453125,-0.0671188160777092,-0.05535966157913208,0.02321287989616394
1760285892246066700,8.959066650390625,-0.08483391255140305,-0.07185302674770355,0.00366519158706069
1760285892256066800,8.96906689453125,-0.09460775554180145,-0.07918340712785721,-0.010995574295520782
1760285892266066700,8.979066650390624,-0.08361218124628067,-0.05902485549449921,-0.03420845419168472
1760285892276066800,8.98906689453125,-0.06345362961292267,-0.036422841250896454,-0.05497787147760391
1760285892286066700,8.999066650390626,-0.03413209691643715,-0.023594669997692108,-0.06352998316287994
1760285892296066800,9.00906689453125,-0.01947133056819439,-0.02298380434513092,-0.05314527451992035
1760285892306066700,9.019066650390625,-0.005421428941190243,-0.027870727702975273,-0.02382374368607998
1760285892316066800,9.02906689453125,0.009239336475729942,-0.04069889709353447,0.019547687843441963
1760285892326066700,9.039066650390625,0.03611740842461586,-0.04986187443137169,0.06475171446800232
1760285892336066800,9.04906689453125,0.06299547851085663,-0.035811975598335266,0.10262536257505417
1760285892346066700,9.059066650390625,0.08009970188140869,-0.013209961354732513,0.1362229436635971
1760285892356066800,9.06906689453125,0.07154759019613266,-0.021762074902653694,0.13316862285137177
1760285892366066700,9.079066650390626,0.055054228752851486,-0.033368512988090515,0.10751228034496307
1760285892376066800,9.08906689453125,0.03550654277205467,-0.05047274008393288,0.0708603709936142
1760285892386066700,9.099066650390625,0.01412625890225172,-0.07185302674770355,0.039706241339445114
1760285892396066800,9.10906689453125,-0.004199698567390442,-0.08407033234834671,0.021380282938480377
1760285892406066700,9.119066650390625,-0.014584408141672611,-0.08223773539066315,0.014049900695681572
1760285892416066800,9.12906689453125,-0.02496911771595478,-0.06207918003201485,0.025045474991202354
1760285892426066700,9.139066650390625,-0.02496911771595478,-0.04008803144097328,0.03420845419168472
1760285892436066800,9.14906689453125,-0.015806138515472412,-0.015042556449770927,0.04092797264456749
1760285892446066700,9.159066650390624,-0.0017562375869601965,-0.00038179077091626823,0.04703662544488907
1760285892456066800,9.16906689453125,0.011682798154652119,-0.0022143865935504436,0.05253441259264946
1760285892466066700,9.179066650390626,0.02695442922413349,-0.015653422102332115,0.05864306539297104
1760285892476066800,9.18906689453125,0.034895677119493484,-0.027870727702975273,0.06536258012056351
1760285892486066700,9.199066650390625,0.03367394581437111,-0.024205535650253296,0.07452555745840073
1760285892496066800,9.20906689453125,0.02451096847653389,-0.02298380434513092,0.07635815441608429
1760285892506066700,9.219066650390625,0.012293662875890732,-0.024816401302814484,0.07513642311096191
1760285892516066800,9.22906689453125,0.00557414535433054,-0.036422841250896454,0.06230825558304787
1760285892526066700,9.239066650390624,0.0012980886967852712,-0.04375322163105011,0.051312681287527084
1760285892536066800,9.24906689453125,-0.0035888333804905415,-0.04986187443137169,0.0403171069920063
1760285892546066700,9.259066650390626,-0.009086620062589645,-0.05841398984193802,0.03420845419168472
1760285892556066800,9.26906689453125,-0.002367102773860097,-0.04864014685153961,0.02076941914856434
1760285892566066700,9.279066650390625,0.008017606101930141,-0.03764457255601883,0.00366519158706069
1760285892576066800,9.28906689453125,0.015347989276051521,-0.03703370690345764,-0.01038470957428217
1760285892586066700,9.299066650390625,0.022678371518850327,-0.04375322163105011,-0.015882495790719986
1760285892596066800,9.30906689453125,0.03000875562429428,-0.06574437022209167,-0.006108652334660292
1760285892606066700,9.319066650390624,0.02756529487669468,-0.08284860104322433,0.015882495790719986
1760285892616066800,9.32906689453125,0.022678371518850327,-0.08712465316057205,0.0354301854968071
1760285892626066700,9.339066650390626,0.022678371518850327,-0.07246389240026474,0.05864306539297104
1760285892636066800,9.34906689453125,0.025732697919011116,-0.06330090761184692,0.06230825558304787
1760285892646066700,9.359066650390625,0.03611740842461586,-0.06696610152721405,0.06475171446800232
1760285892656066800,9.36906689453125,0.05688682571053505,-0.08895725011825562,0.056810468435287476
1760285892666066700,9.379066650390625,0.06788240373134613,-0.10361801832914352,0.03848451003432274
1760285892676066800,9.38906689453125,0.06360634416341782,-0.1152244582772255,0.015882495790719986
1760285892686066700,9.399066650390624,0.0593302883207798,-0.12255483865737915,-0.006719517521560192
1760285892696066800,9.40906689453125,0.06238461285829544,-0.12622003257274628,-0.01771509274840355
1760285892706066700,9.419066650390626,0.06543894112110138,-0.11705705523490906,-0.007941247895359993
1760285892716066800,9.42906689453125,0.05688682571053505,-0.10178542137145996,0.004886921960860491
1760285892726066700,9.439066650390625,0.04894557595252991,-0.08040513843297958,0.02871066704392433
1760285892736066800,9.44906689453125,0.04833471402525902,-0.056581392884254456,0.03787364438176155
1760285892746066700,9.459066650390625,0.03672827407717705,-0.016264287754893303,0.04092797264456749
1760285892756066800,9.46906689453125,0.03061962127685547,0.0020616701804101467,0.03481931984424591
1760285892766066700,9.479066650390624,0.026343563571572304,-0.007712173741310835,0.015271631069481373
1760285892776066800,9.48906689453125,0.019624045118689537,0.0020616701804101467,-0.00366519158706069
1760285892786066700,9.499066650390626,0.012293662875890732,0.025885414332151413,-0.025045474991202354
1760285892796066800,9.50906689453125,0.011071932502090931,0.051541756838560104,-0.04581489413976669
1760285892806066700,9.519066650390625,0.015347989276051521,0.060093868523836136,-0.05864306539297104
1760285892816066800,9.52906689453125,0.023900102823972702,0.06498079001903534,-0.06291911751031876
1760285892826066700,9.539066650390625,0.028787024319171906,0.06620252132415771,-0.06291911751031876
1760285892836066800,9.54906689453125,0.028787024319171906,0.05520694702863693,-0.059864792972803116
1760285892846066700,9.559066650390625,0.022678371518850327,0.03810271993279457,-0.05864306539297104
1760285892856066800,9.56906689453125,0.01290452852845192,0.01794416643679142,-0.05192354694008827
1760285892866066700,9.579066650390626,0.004352414980530739,-0.0034361169673502445,-0.042760565876960754
1760285892876066800,9.58906689453125,0.0019089538836851716,-0.01992947794497013,-0.025045474991202354
1760285892886066700,9.599066650390625,0.00007635815563844517,-0.01992947794497013,-0.006108652334660292
1760285892896066800,9.60906689453125,0.0019089538836851716,-0.013820826075971127,0.013439035043120384
1760285892906066700,9.619066650390625,0.009239336475729942,-0.018707748502492905,0.03420845419168472
1760285892916066800,9.62906689453125,0.016569720581173897,-0.033368512988090515,0.03848451003432274
1760285892926066700,9.639066650390625,0.0214566420763731,-0.04069889709353447,0.03237585723400116
1760285892936066800,9.64906689453125,0.026343563571572304,-0.03520110994577408,0.02076941914856434
1760285892946066700,9.659066650390624,0.02756529487669468,-0.021151209250092506,0.015271631069481373
1760285892956066800,9.66906689453125,0.020845776423811913,-0.013820826075971127,0.016493361443281174
1760285892966066700,9.679066650390626,0.015347989276051521,-0.009544769302010536,0.01710422709584236
1760285892976066800,9.68906689453125,0.017791450023651123,-0.007712173741310835,0.006108652334660292
1760285892986066700,9.699066650390625,0.023900102823972702,-0.013820826075971127,0.003054326167330146
1760285892996066800,9.70906689453125,0.031230485066771507,-0.02298380434513092,0.0024434609804302454
1760285893006066700,9.719066650390625,0.03672827407717705,-0.0290924571454525,0.0024434609804302454
1760285893016066800,9.72906689453125,0.04283692687749863,-0.03275764733552933,-0.0012217304902151227
1760285893026066700,9.739066650390624,0.049556441605091095,-0.029703322798013687,-0.006108652334660292
1760285893036066800,9.74906689453125,0.049556441605091095,-0.02848159149289131,0.003054326167330146
1760285893046066700,9.759066650390626,0.03856086730957031,-0.060246583074331284,0.016493361443281174
1760285893056066800,9.76906689453125,0.023900102823972702,-0.10422888398170471,0.029932396486401558
1760285893066066700,9.779066650390625,0.0342848114669323,-0.08284860104322433,0.02382374368607998
1760285893076066800,9.78906689453125,0.04589125141501427,-0.048029281198978424,0.01710422709584236
1760285893086066700,9.799066650390625,0.051999904215335846,-0.038866300135850906,0.015271631069481373
1760285893096066800,9.80906689453125,0.049556441605091095,-0.030925052240490913,0.010995574295520782
1760285893106066700,9.819066650390624,0.04528038576245308,0.00939205288887024,-0.00427605677396059
1760285893116066800,9.82906689453125,0.04894557595252991,0.021609358489513397,-0.012828170321881771
1760285893126066700,9.839066650390626,0.04833471402525902,0.016722436994314194,-0.014049900695681572
1760285893136066800,9.84906689453125,0.04589125141501427,0.00022907447419129312,-0.007941247895359993
1760285893146066700,9.859066650390625,0.031230485066771507,-0.04008803144097328,0.00366519158706069
1760285893156066800,9.86906689453125,0.014737123623490334,-0.05841398984193802,0.019547687843441963
1760285893166066700,9.879066650390625,0.017180584371089935,-0.02603813074529171,0.015271631069481373
1760285893176066800,9.88906689453125,0.03672827407717705,0.011835514567792416,-0.00733038317412138
1760285893186066700,9.899066650390624,0.044058654457330704,0.00022907447419129312,-0.014049900695681572
1760285893196066800,9.90906689453125,0.04161519557237625,-0.011377365328371525,-0.009162978269159794
1760285893206066700,9.919066650390626,0.03367394581437111,-0.024205535650253296,-0.0006108652451075613
1760285893216066800,9.92906689453125,0.023900102823972702,-0.038866300135850906,0.00366519158706069
1760285893226066700,9.939066650390625,0.022067507728934288,-0.038866300135850906,-0.003054326167330146
1760285893236066800,9.94906689453125,0.023900102823972702,-0.023594669997692108,-0.01466076634824276
1760285893246066700,9.959066650390625,0.0214566420763731,-0.0071013085544109344,-0.02687807008624077
1760285893256066800,9.96906689453125,0.022678371518850327,0.00022907447419129312,-0.030543262138962746
1760285893266066700,9.979066650390624,0.03000875562429428,0.0032834007870405912,-0.03298672288656235
1760285893276066800,9.98906689453125,0.03061962127685547,-0.008323038928210735,-0.02382374368607998
1760285893286066700,9.999066650390626,0.026343563571572304,-0.018096882849931717,-0.004886921960860491
1760285893296066800,10.00906689453125,0.02451096847653389,-0.006490443367511034,0.00733038317412138
1760285893306066700,10.019066650390625,0.023900102823972702,0.004505131393671036,0.00855211354792118
1760285893316066800,10.02906689453125,0.01412625890225172,-0.004046982154250145,-0.004886921960860491
1760285893326066700,10.039066650390625,0.00985020212829113,-0.009544769302010536,-0.015271631069481373
1760285893336066800,10.04906689453125,0.007406740915030241,-0.008323038928210735,-0.02321287989616394
1760285893346066700,10.059066650390625,-0.0017562375869601965,-0.004046982154250145,-0.02687807008624077
1760285893356066800,10.06906689453125,-0.010919216088950634,-0.0034361169673502445,-0.02687807008624077
1760285893366066700,10.079066650390626,-0.020082194358110428,-0.007712173741310835,-0.018936822190880775
1760285893376066800,10.08906689453125,-0.023747386410832405,-0.015653422102332115,-0.003054326167330146
1760285893386066700,10.099066650390625,-0.015195272862911224,-0.01748601719737053,0.03237585723400116
1760285893396066800,10.10906689453125,-0.008475755341351032,-0.008933904580771923,0.04337143152952194
1760285893406066700,10.119066650390625,-0.0011453722836449742,-0.005879578180611134,0.03481931984424591
1760285893416066800,10.12906689453125,0.004963280167430639,-0.010766499675810337,0.013439035043120384
1760285893426066700,10.139066650390625,0.006795875728130341,-0.021151209250092506,-0.007941247895359993
1760285893436066800,10.14906689453125,0.004963280167430639,-0.03764457255601883,-0.02382374368607998
1760285893446066700,10.159066650390624,0.002519819187000394,-0.05719225853681564,-0.022602014243602753
1760285893456066800,10.16906689453125,-0.0029779679607599974,-0.07612907886505127,0.01038470957428217
1760285893466066700,10.179066650390626,-0.0029779679607599974,-0.08162686973810196,0.04214970022439957
1760285893476066800,10.18906689453125,-0.0035888333804905415,-0.08407033234834671,0.06841690838336945
1760285893486066700,10.199066650390625,-0.006032294128090143,-0.08773551881313324,0.08368854224681854
1760285893496066800,10.20906689453125,-0.009697485715150833,-0.09873109310865402,0.09529497474431992
1760285893506066700,10.219066650390625,-0.010308351367712021,-0.1097266674041748,0.10384709388017654
1760285893516066800,10.22906689453125,-0.0035888333804905415,-0.11278099566698074,0.11239920556545258
1760285893526066700,10.239066650390624,0.025121834129095078,-0.08101600408554077,0.12767083942890167
1760285893536066800,10.24906689453125,0.04283692687749863,-0.07735081017017365,0.13011430203914642
1760285893546066700,10.259066650390626,0.04772384837269783,-0.06879869848489761,0.10323622822761536
1760285893556066800,10.26906689453125,0.037339139729738235,-0.05719225853681564,0.05925392732024193
1760285893566066700,10.279066650390625,0.017791450023651123,-0.06818783283233643,0.015882495790719986
1760285893576066800,10.28906689453125,0.0031306843739002943,-0.08407033234834671,-0.013439035043120384
1760285893586066700,10.299066650390625,-0.0017562375869601965,-0.0797942727804184,-0.022602014243602753
1760285893596066800,10.30906689453125,-0.0005345070967450738,-0.060246583074331284,-0.0006108652451075613
1760285893606066700,10.319066650390624,-0.0035888333804905415,-0.048029281198978424,0.02626720629632473
1760285893616066800,10.32906689453125,-0.006032294128090143,-0.03275764733552933,0.0507018156349659
1760285893626066700,10.339066650390626,-0.009086620062589645,-0.02054034359753132,0.0659734457731247
1760285893636066800,10.34906689453125,-0.015195272862911224,-0.018096882849931717,0.07330382615327835
1760285893646066700,10.359066650390625,-0.015195272862911224,-0.007712173741310835,0.07635815441608429
1760285893656066800,10.36906689453125,-0.007254024967551231,0.0069485921412706375,0.06719517707824707
1760285893666066700,10.379066650390625,0.002519819187000394,0.011224648915231228,0.0403171069920063
1760285893676066800,10.38906689453125,0.007406740915030241,0.013057244941592216,0.018325956538319588
1760285893686066700,10.399066650390624,0.01412625890225172,0.016111571341753006,-0.00366519158706069
1760285893696066800,10.40906689453125,0.020845776423811913,0.011835514567792416,-0.021991148591041565
1760285893716066800,10.42906689453125,0.023289237171411514,0.002672535367310047,-0.031154127791523933
1760285893726066700,10.439066650390625,0.011071932502090931,0.000839939690195024,-0.006108652334660292
1760285893736066800,10.44906689453125,-0.0029779679607599974,-0.0016035212902352214,0.015882495790719986
1760285893746066700,10.459066650390625,-0.015806138515472412,-0.00038179077091626823,0.03298672288656235
1760285893756066800,10.46906689453125,-0.01947133056819439,-0.002825251780450344,0.03726277872920036
1760285893766066700,10.479066650390624,-0.012140946462750435,-0.008323038928210735,0.02871066704392433
1760285893776066800,10.48906689453125,0.00007635815563844517,-0.009544769302010536,0.012217304669320583
1760285893786066700,10.499066650390626,0.011071932502090931,0.0020616701804101467,-0.003054326167330146
1760285893796066800,10.50906689453125,0.011682798154652119,0.02955060638487339,-0.009773843921720982
1760285893806066700,10.519066650390625,0.0019089538836851716,0.04787656292319298,-0.0024434609804302454
1760285893826066700,10.539066650390625,-0.020082194358110428,0.05276348441839218,0.01466076634824276
1760285893836066800,10.54906689453125,-0.020082194358110428,0.036880988627672195,0.015882495790719986
1760285893856066800,10.56906689453125,-0.002367102773860097,0.005115996580570936,0.005497787147760391
1760285893866066700,10.579066650390626,0.01840231567621231,0.02099849283695221,-0.005497787147760391
1760285893876066800,10.58906689453125,0.031841352581977844,0.028328875079751015,-0.01038470957428217
1760285893886066700,10.599066650390625,0.037339139729738235,0.021609358489513397,-0.014049900695681572
1760285893896066800,10.60906689453125,0.03978259861469269,0.012446379289031029,-0.01160643994808197
1760285893906066700,10.619066650390625,0.03000875562429428,-0.02054034359753132,-0.009773843921720982
1760285893916066800,10.62906689453125,0.016569720581173897,-0.04864014685153961,-0.00855211354792118
1760285893926066700,10.639066650390625,0.006795875728130341,-0.02603813074529171,-0.02321287989616394
1760285893936066800,10.64906689453125,-0.021303925663232803,0.028939740732312202,-0.09468411654233932
1760285893946066700,10.659066650390624,-0.015806138515472412,-0.01748601719737053,-0.08491026610136032
1760285893956066800,10.66906689453125,-0.0164170041680336,-0.04314235970377922,-0.09468411654233932
1760285893966066700,10.679066650390626,-0.021303925663232803,-0.06146831437945366,-0.10812314599752426
1760285893976066800,10.68906689453125,-0.024358252063393593,-0.08895725011825562,-0.10506882518529892
1760285893986066700,10.699066650390625,-0.02557998150587082,-0.09506590664386749,-0.08735372871160507
1760285893996066800,10.70906689453125,-0.02496911771595478,-0.08651378750801086,-0.06352998316287994
1760285894006066700,10.719066650390625,-0.020082194358110428,-0.0694095641374588,-0.01466076634824276
1760285894016066800,10.72906689453125,-0.015806138515472412,-0.03520110994577408,0.014049900695681572
1760285894026066700,10.739066650390624,-0.009697485715150833,0.004505131393671036,0.036651913076639175
1760285894036066800,10.74906689453125,-0.007864889688789845,0.022831087931990623,0.04581489413976669
1760285894046066700,10.759066650390626,-0.006032294128090143,0.01366810966283083,0.04153883829712868
1760285894056066800,10.76906689453125,-0.007254024967551231,-0.005268712528049946,0.036041051149368286
1760285894066066700,10.779066650390625,-0.005421428941190243,-0.027870727702975273,0.027488935738801956
1760285894076066800,10.78906689453125,0.0006872233934700489,-0.0443640872836113,0.00733038317412138
1760285894086066700,10.799066650390625,-0.0005345070967450738,-0.03459024429321289,-0.00427605677396059
1760285894096066800,10.80906689453125,-0.0011453722836449742,-0.01992947794497013,-0.014049900695681572
1760285894106066700,10.819066650390624,-0.0029779679607599974,-0.005268712528049946,-0.019547687843441963
1760285894116066800,10.82906689453125,0.0019089538836851716,0.005115996580570936,-0.022602014243602753
1760285894126066700,10.839066650390626,0.004963280167430639,0.005115996580570936,-0.025045474991202354
1760285894136066800,10.84906689453125,0.0019089538836851716,0.0014508049935102463,-0.02382374368607998
1760285894146066700,10.859066650390625,-0.0005345070967450738,0.008781188167631626,-0.015271631069481373
1760285894156066800,10.86906689453125,0.002519819187000394,0.028328875079751015,-0.01160643994808197
1760285894166066700,10.879066650390625,0.008017606101930141,0.039324451237916946,-0.01160643994808197
1760285894176066800,10.88906689453125,0.013515393249690533,0.03749185428023338,-0.00733038317412138
1760285894186066700,10.899066650390624,0.011682798154652119,0.033826664090156555,-0.00427605677396059
1760285894196066800,10.90906689453125,0.0031306843739002943,0.03504839166998863,-0.0024434609804302454
1760285894206066700,10.919066650390626,-0.007254024967551231,0.04421137273311615,-0.00366519158706069
1760285894216066800,10.92906689453125,-0.010308351367712021,0.06559165567159653,-0.024434609338641167
1760285894226066700,10.939066650390625,-0.007254024967551231,0.054596081376075745,-0.03848451003432274
1760285894236066800,10.94906689453125,-0.0029779679607599974,0.04054617881774902,-0.054367005825042725
1760285894246066700,10.959066650390625,0.0012980886967852712,0.04360050708055496,-0.0708603709936142
1760285894256066800,10.96906689453125,-0.002367102773860097,0.05093089118599892,-0.07757988572120667
1760285894266066700,10.979066650390624,-0.014584408141672611,0.0466548316180706,-0.06475171446800232
1760285894276066800,10.98906689453125,-0.02863430790603161,0.04360050708055496,-0.039706241339445114
1760285894286066700,10.999066650390626,-0.04207334294915199,0.05032002553343773,0
1760285894296066800,11.00906689453125,-0.05062545835971832,0.03871358558535576,0.025045474991202354
1760285894306066700,11.019066650390625,-0.061621032655239105,0.01794416643679142,0.04459316283464432
1760285894316066800,11.02906689453125,-0.06834054738283157,0.0020616701804101467,0.06475171446800232
1760285894326066700,11.039066650390625,-0.06772968173027039,-0.0034361169673502445,0.08368854224681854
1760285894336066800,11.04906689453125,-0.06223189830780029,-0.005879578180611134,0.10018189996480942
1760285894346066700,11.059066650390625,-0.056123245507478714,-0.005268712528049946,0.10690141469240189
1760285894356066800,11.06906689453125,-0.05245805159211159,-0.002825251780450344,0.10201449692249298
1760285894366066700,11.079066650390626,-0.058566704392433167,0.00022907447419129312,0.08552113175392151
1760285894376066800,11.08906689453125,-0.07139487564563751,0.008781188167631626,0.0555887371301651
1760285894386066700,11.099066650390625,-0.07139487564563751,-0.0071013085544109344,0.02015855349600315
1760285894396066800,11.10906689453125,-0.06589708477258682,-0.04375322163105011,-0.007941247895359993
1760285894406066700,11.119066650390625,-0.058566704392433167,-0.07796167582273483,-0.02015855349600315
1760285894416066800,11.12906689453125,-0.04207334294915199,-0.0944550409913063,-0.02076941914856434
1760285894426066700,11.139066650390625,-0.023747386410832405,-0.08834638446569443,-0.00366519158706069
1760285894436066800,11.14906689453125,-0.002367102773860097,-0.08407033234834671,0.018325956538319588
1760285894446066700,11.159066650390624,0.01290452852845192,-0.059635721147060394,0.039095375686883926
1760285894456066800,11.16906689453125,0.02451096847653389,-0.033368512988090515,0.051312681287527084
1760285894466066700,11.179066650390626,0.03306308016180992,-0.01992947794497013,0.05619960278272629
1760285894476066800,11.18906689453125,0.04222606122493744,-0.01687515154480934,0.056810468435287476
1760285894486066700,11.199066650390625,0.04528038576245308,-0.016264287754893303,0.045204028487205505
1760285894496066800,11.20906689453125,0.031841352581977844,-0.023594669997692108,0.03787364438176155
1760285894506066700,11.219066650390625,0.011071932502090931,-0.0290924571454525,0.033597588539123535
1760285894516066800,11.22906689453125,-0.004810563754290342,-0.030925052240490913,0.029932396486401558
1760285894526066700,11.239066650390624,-0.009697485715150833,-0.025427265092730522,0.02626720629632473
1760285894536066800,11.24906689453125,-0.009086620062589645,-0.01992947794497013,0.025656340643763542
1760285894546066700,11.259066650390626,-0.004810563754290342,-0.004657847341150045,0.02871066704392433
1760285894556066800,11.26906689453125,0.00618501054123044,0.011835514567792416,0.03237585723400116
1760285894566066700,11.279066650390625,0.007406740915030241,0.004505131393671036,0.03298672288656235
1760285894576066800,11.28906689453125,0.0031306843739002943,-0.0016035212902352214,0.03237585723400116
1760285894586066700,11.299066650390625,0.0019089538836851716,-0.006490443367511034,0.03176499158143997
1760285894596066800,11.30906689453125,-0.0029779679607599974,-0.004657847341150045,0.02932153269648552
1760285894606066700,11.319066650390624,-0.012751812115311623,0.0020616701804101467,0.025045474991202354
1760285894616066800,11.32906689453125,-0.024358252063393593,0.0032834007870405912,0.014049900695681572
1760285894626066700,11.339066650390626,-0.03779728710651398,-0.010155634954571724,-0.007941247895359993
1760285894636066800,11.34906689453125,-0.04024074971675873,-0.024205535650253296,-0.021380282938480377
1760285894646066700,11.359066650390625,-0.035353824496269226,-0.03214678168296814,-0.02382374368607998
1760285894656066800,11.36906689453125,-0.023747386410832405,-0.036422841250896454,-0.015271631069481373
1760285894666066700,11.379066650390625,-0.012140946462750435,-0.041920628398656845,0.0006108652451075613
1760285894676066800,11.38906689453125,-0.0035888333804905415,-0.039477165788412094,0.01710422709584236
1760285894686066700,11.399066650390624,-0.0029779679607599974,-0.030314188450574875,0.031154127791523933
1760285894696066800,11.40906689453125,-0.012140946462750435,-0.008933904580771923,0.039095375686883926
1760285894706066700,11.419066650390626,-0.017638733610510826,0.011224648915231228,0.04092797264456749
1760285894716066800,11.42906689453125,-0.020082194358110428,0.0264962799847126,0.03420845419168472
1760285894726066700,11.439066650390625,-0.01947133056819439,0.02710714563727379,0.021380282938480377
1760285894736066800,11.44906689453125,-0.018249599263072014,0.007559457328170538,0.003054326167330146
1760285894746066700,11.459066650390625,-0.015806138515472412,-0.025427265092730522,-0.009773843921720982
1760285894756066800,11.46906689453125,-0.013362676836550236,-0.053527068346738815,-0.009773843921720982
1760285894766066700,11.479066650390624,-0.013362676836550236,-0.0645226389169693,0.018936822190880775
1760285894776066800,11.48906689453125,-0.014584408141672611,-0.05047274008393288,0.04092797264456749
1760285894786066700,11.499066650390626,-0.013362676836550236,-0.021151209250092506,0.0555887371301651
1760285894796066800,11.50906689453125,-0.0188604649156332,0.05826127156615257,0.042760565876960754
1760285894806066700,11.519066650390625,-0.02802344225347042,0.20547980070114136,-0.06108652427792549
1760285894816066800,11.52906689453125,-0.0365755558013916,0.05887213721871376,-0.08185594528913498
1760285894826066700,11.539066650390625,-0.04024074971675873,0.03260493278503418,-0.08185594528913498
1760285894836066800,11.54906689453125,0.004352414980530739,0.03810271993279457,-0.0910189226269722
1760285894846066700,11.559066650390625,0.022067507728934288,-0.005879578180611134,-0.07880161702632904
1760285894856066800,11.56906689453125,0.028176158666610718,0.02099849283695221,-0.0659734457731247
1760285894866066700,11.579066650390626,0.028787024319171906,0.05093089118599892,-0.045204028487205505
1760285894876066800,11.58906689453125,0.022678371518850327,0.0466548316180706,-0.01710422709584236
1760285894886066700,11.599066650390625,0.011682798154652119,0.039324451237916946,0.007941247895359993
1760285894896066800,11.60906689453125,0.0012980886967852712,0.0417679101228714,0.018936822190880775
1760285894906066700,11.619066650390625,-0.005421428941190243,0.03627012297511101,0.012217304669320583
1760285894916066800,11.62906689453125,-0.004810563754290342,0.011224648915231228,-0.005497787147760391
1760285894926066700,11.639066650390625,-0.007864889688789845,-0.0009926559869199991,-0.022602014243602753
1760285894936066800,11.64906689453125,-0.009697485715150833,0.00022907447419129312,-0.03726277872920036
1760285894946066700,11.659066650390624,-0.010308351367712021,0.0038942659739404917,-0.039706241339445114
1760285894956066800,11.66906689453125,-0.007254024967551231,0.002672535367310047,-0.02932153269648552
1760285894966066700,11.679066650390626,-0.0029779679607599974,-0.007712173741310835,-0.009162978269159794
1760285894976066800,11.68906689453125,0.0031306843739002943,-0.007712173741310835,0.025045474991202354
1760285894986066700,11.699066650390625,0.00557414535433054,-0.009544769302010536,0.03237585723400116
1760285894996066800,11.70906689453125,0.002519819187000394,-0.012599095702171326,0.027488935738801956
1760285895006066700,11.719066650390625,0.00007635815563844517,-0.013820826075971127,0.01771509274840355
1760285895016066800,11.72906689453125,0.0006872233934700489,-0.015042556449770927,0.013439035043120384
1760285895026066700,11.739066650390624,0.00862847175449133,-0.013209961354732513,0.01160643994808197
1760285895036066800,11.74906689453125,0.0190131813287735,-0.011988230049610138,0.014049900695681572
1760285895046066700,11.759066650390626,0.02695442922413349,-0.01687515154480934,0.03176499158143997
1760285895056066800,11.76906689453125,0.023289237171411514,-0.021762074902653694,0.04948008432984352
1760285895066066700,11.779066650390625,0.011071932502090931,-0.02848159149289131,0.06352998316287994
1760285895076066800,11.78906689453125,-0.006643159314990044,-0.03764457255601883,0.07757988572120667
1760285895086066700,11.799066650390625,-0.01947133056819439,-0.04253149405121803,0.08185594528913498
1760285895096066800,11.80906689453125,-0.01702786795794964,-0.04314235970377922,0.07757988572120667
1760285895106066700,11.819066650390624,0.002519819187000394,-0.025427265092730522,0.056810468435287476
1760285895116066800,11.82906689453125,0.015347989276051521,-0.027259862050414085,0.04153883829712868
1760285895126066700,11.839066650390626,0.0214566420763731,-0.04864014685153961,0.029932396486401558
1760285895136066800,11.84906689453125,0.02451096847653389,-0.07185302674770355,0.03176499158143997
1760285895146066700,11.859066650390625,0.025121834129095078,-0.0846811980009079,0.04153883829712868
1760285895156066800,11.86906689453125,0.023900102823972702,-0.08223773539066315,0.05253441259264946
1760285895166066700,11.879066650390625,0.022678371518850327,-0.056581392884254456,0.06169738993048668
1760285895176066800,11.88906689453125,0.012293662875890732,-0.010766499675810337,0.07696902006864548
1760285895186066700,11.899066650390624,-0.0017562375869601965,-0.004657847341150045,0.08246681094169617
1760285895196066800,11.90906689453125,-0.012751812115311623,-0.019318614155054092,0.07819075137376785
1760285895206066700,11.919066650390626,-0.013362676836550236,-0.033368512988090515,0.06108652427792549
1760285895216066800,11.92906689453125,-0.005421428941190243,-0.038866300135850906,0.03420845419168472
1760285895226066700,11.939066650390625,0.004352414980530739,-0.036422841250896454,0.006719517521560192
1760285895236066800,11.94906689453125,0.011071932502090931,-0.01748601719737053,-0.018936822190880775
1760285895246066700,11.959066650390625,0.016569720581173897,0.008170322515070438,-0.042760565876960754
1760285895256066800,11.96906689453125,0.01595885492861271,0.008781188167631626,-0.04581489413976669
1760285895266066700,11.979066650390624,0.01290452852845192,0.0020616701804101467,-0.042760565876960754
1760285895276066800,11.98906689453125,0.00985020212829113,-0.005268712528049946,-0.042760565876960754
1760285895286066700,11.999066650390626,0.007406740915030241,-0.011377365328371525,-0.039706241339445114
1760285895296066800,12.00906689453125,0.00862847175449133,-0.0071013085544109344,-0.03481931984424591
1760285895306066700,12.019066650390625,0.013515393249690533,0.012446379289031029,-0.028099801391363144
1760285895316066800,12.02906689453125,0.022067507728934288,0.04054617881774902,-0.02321287989616394
1760285895326066700,12.039066650390625,0.02451096847653389,0.03810271993279457,-0.02687807008624077
1760285895336066800,12.04906689453125,0.020845776423811913,0.02344195358455181,-0.030543262138962746
1760285895346066700,12.059066650390625,0.013515393249690533,-0.0022143865935504436,-0.03481931984424591
1760285895356066800,12.06906689453125,0.00618501054123044,-0.022372938692569733,-0.03298672288656235
1760285895366066700,12.079066650390626,0.00007635815563844517,-0.022372938692569733,-0.027488935738801956
1760285895376066800,12.08906689453125,-0.004199698567390442,-0.010766499675810337,-0.02076941914856434
1760285895386066700,12.099066650390625,-0.006643159314990044,-0.0022143865935504436,-0.01466076634824276
1760285895396066800,12.10906689453125,-0.0029779679607599974,-0.005879578180611134,-0.01466076634824276
1760285895406066700,12.119066650390625,0.0019089538836851716,-0.009544769302010536,-0.014049900695681572
1760285895416066800,12.12906689453125,0.009239336475729942,-0.025427265092730522,-0.006719517521560192
1760285895426066700,12.139066650390625,0.010461067780852318,-0.041920628398656845,0.004886921960860491
1760285895436066800,12.14906689453125,0.008017606101930141,-0.04864014685153961,0.016493361443281174
1760285895446066700,12.159066650390624,-0.0005345070967450738,-0.04130976274609566,0.02626720629632473
1760285895456066800,12.16906689453125,-0.010308351367712021,-0.027259862050414085,0.02871066704392433
1760285895466066700,12.179066650390626,-0.014584408141672611,-0.02603813074529171,0.021380282938480377
