time,seconds_elapsed,z,y,x
1760285883411411500,0.124411376953125,9.478943824768066,1.968033790588379,-0.0454898327589035
1760285883441411600,0.15441162109375,9.526827812194824,1.9536685943603516,-0.06224924325942993
1760285883451411500,0.164411376953125,9.550769805908203,1.944091796875,-0.05506663769483566
1760285883461411600,0.17441162109375,9.591471672058105,1.920149803161621,-0.0454898327589035
1760285883471411500,0.184411376953125,9.646537780761719,1.900996208190918,-0.038307227194309235
1760285883481411600,0.19441162109375,9.692028045654297,1.8914192914962769,-0.035913024097681046
1760285883491411500,0.204411376953125,9.725546836853027,1.8914192914962769,-0.031124621629714966
1760285883501411600,0.21441162109375,9.751882553100586,1.8914192914962769,-0.026336219161748886
1760285883511411500,0.224411376953125,9.754277229309082,1.886630892753601,-0.023942016065120697
1760285883521411600,0.23441162109375,9.74470043182373,1.8914192914962769,-0.014365210197865963
1760285883531411500,0.244411376953125,9.732728958129883,1.8986018896102905,-0.009576806798577309
1760285883541411600,0.25441162109375,9.715970039367676,1.8986018896102905,-0.002394201699644327
1760285883551411500,0.264411376953125,9.696816444396973,1.8962076902389526,-0.002394201699644327
1760285883561411600,0.27441162109375,9.684844970703125,1.8914192914962769,0
1760285883571411500,0.284411376953125,9.670479774475098,1.886630892753601,0.002394201699644327
1760285883581411600,0.29441162109375,9.658509254455566,1.8842366933822632,-0.002394201699644327
1760285883591411500,0.304411376953125,9.646537780761719,1.8818424940109253,0.0071826050989329815
1760285883601411600,0.31441162109375,9.641749382019043,1.8746598958969116,0.014365210197865963
1760285883611411500,0.324411376953125,9.646537780761719,1.8722656965255737,0.021547814831137657
1760285883621411600,0.33441162109375,9.651326179504395,1.8722656965255737,0.028730420395731926
1760285883631411500,0.344411376953125,9.651326179504395,1.8698714971542358,0.026336219161748886
1760285883641411600,0.35441162109375,9.648932456970215,1.86508309841156,0.016759412363171577
1760285883651411500,0.364411376953125,9.644144058227539,1.867477297782898,0.0071826050989329815
1760285883661411600,0.37441162109375,9.624990463256836,1.86508309841156,0.002394201699644327
1760285883671411500,0.384411376953125,9.579500198364258,1.8626888990402222,-0.004788403399288654
1760285883681411600,0.39441162109375,9.534010887145996,1.8626888990402222,-0.014365210197865963
1760285883691411500,0.404411376953125,9.502885818481445,1.8579005002975464,-0.021547814831137657
1760285883701411600,0.41441162109375,9.488520622253418,1.8555063009262085,-0.028730420395731926
1760285883711411500,0.424411376953125,9.512462615966797,1.843535304069519,-0.031124621629714966
1760285883721411600,0.43441162109375,9.555558204650879,1.8339585065841675,-0.033518824726343155
1760285883731411500,0.444411376953125,9.593865394592285,1.8291701078414917,-0.035913024097681046
1760285883741411600,0.45441162109375,9.617807388305664,1.824381709098816,-0.031124621629714966
1760285883751411500,0.464411376953125,9.62259578704834,1.8267759084701538,-0.023942016065120697
1760285883761411600,0.47441162109375,9.62020206451416,1.8315643072128296,-0.023942016065120697
1760285883771411500,0.484411376953125,9.62259578704834,1.8363527059555054,-0.021547814831137657
1760285883781411600,0.49441162109375,9.62020206451416,1.8339585065841675,-0.023942016065120697
1760285883791411500,0.504411376953125,9.608230590820312,1.8387469053268433,-0.016759412363171577
1760285883801411600,0.51441162109375,9.593865394592285,1.845929503440857,-0.009576806798577309
1760285883811411500,0.524411376953125,9.581894874572754,1.8507179021835327,-0.004788403399288654
1760285883821411600,0.53441162109375,9.577106475830078,1.8483237028121948,-0.0071826050989329815
1760285883831411500,0.544411376953125,9.584288597106934,1.845929503440857,-0.011971008032560349
1760285883841411600,0.55441162109375,9.58668327331543,1.843535304069519,-0.026336219161748886
1760285883851411500,0.564411376953125,9.58907699584961,1.843535304069519,-0.031124621629714966
1760285883861411600,0.57441162109375,9.58907699584961,1.8339585065841675,-0.031124621629714966
1760285883871411500,0.584411376953125,9.58668327331543,1.824381709098816,-0.023942016065120697
1760285883881411600,0.59441162109375,9.58668327331543,1.8124107122421265,-0.016759412363171577
1760285883891411500,0.604411376953125,9.598653793334961,1.802833914756775,-0.011971008032560349
1760285883901411600,0.61441162109375,9.617807388305664,1.8052281141281128,-0.011971008032560349
1760285883911411500,0.624411376953125,9.632172584533691,1.8052281141281128,-0.011971008032560349
1760285883921411600,0.63441162109375,9.62020206451416,1.8052281141281128,-0.014365210197865963
1760285883931411500,0.644411376953125,9.58668327331543,1.8100165128707886,-0.019153613597154617
1760285883941411600,0.65441162109375,9.557952880859375,1.802833914756775,-0.019153613597154617
1760285883951411500,0.664411376953125,9.538799285888672,1.7908629179000854,-0.016759412363171577
1760285883961411600,0.67441162109375,9.536404609680176,1.7836803197860718,-0.0071826050989329815
1760285883971411500,0.684411376953125,9.541193008422852,1.7836803197860718,-0.0071826050989329815
1760285883981411600,0.69441162109375,9.545981407165527,1.7884687185287476,-0.019153613597154617
1760285883991411500,0.704411376953125,9.545981407165527,1.7932571172714233,-0.031124621629714966
1760285884001411600,0.71441162109375,9.534010887145996,1.7956513166427612,-0.038307227194309235
1760285884011411500,0.724411376953125,9.52922248840332,1.7908629179000854,-0.033518824726343155
1760285884021411600,0.73441162109375,9.538799285888672,1.7956513166427612,-0.028730420395731926
1760285884031411500,0.744411376953125,9.543587684631348,1.800439715385437,-0.026336219161748886
1760285884041411600,0.75441162109375,9.543587684631348,1.8076223134994507,0
1760285884051411500,0.764411376953125,9.557952880859375,1.8124107122421265,0.0071826050989329815
1760285884061411600,0.77441162109375,9.567529678344727,1.8171991109848022,0
1760285884071411500,0.784411376953125,9.574711799621582,1.8195933103561401,0
1760285884081411600,0.79441162109375,9.577106475830078,1.8267759084701538,0
1760285884091411500,0.804411376953125,9.598653793334961,1.8387469053268433,-0.011971008032560349
1760285884101411600,0.81441162109375,9.629778861999512,1.8363527059555054,-0.009576806798577309
1760285884111411500,0.824411376953125,8.983344078063965,1.7070658206939697,-0.12689268589019775
1760285884121411600,0.83441162109375,8.875604629516602,1.7597382068634033,-0.13168109953403473
1760285884131411500,0.844411376953125,9.10305404663086,1.8555063009262085,-0.10534487664699554
1760285884141411600,0.85441162109375,9.411906242370605,1.8770540952682495,-0.10055647045373917
1760285884151411500,0.864411376953125,9.577106475830078,1.8698714971542358,-0.1867477297782898
1760285884161411600,0.87441162109375,9.65372085571289,1.8602946996688843,-0.23702596127986908
1760285884171411500,0.884411376953125,9.668086051940918,1.8148049116134644,-0.272938996553421
1760285884181411600,0.89441162109375,9.632172584533691,1.7573440074920654,-0.2944868206977844
1760285884191411500,0.904411376953125,9.548376083374023,1.7118542194366455,-0.2825157940387726
1760285884201411600,0.91441162109375,9.414299964904785,1.6879122257232666,-0.3471592366695404
1760285884211411500,0.924411376953125,9.241917610168457,1.7046716213226318,-0.3734954595565796
1760285884221411600,0.93441162109375,9.088688850402832,1.7166426181793213,-0.3687070608139038
1760285884231411500,0.944411376953125,9.10066032409668,1.7381904125213623,-0.3902548849582672
1760285884241411600,0.95441162109375,9.239523887634277,1.7717092037200928,-0.45010992884635925
1760285884251411500,0.964411376953125,9.414299964904785,1.7717092037200928,-0.5386953949928284
1760285884261411600,0.97441162109375,9.613018989562988,1.7525556087493896,-0.6416460275650024
1760285884271411500,0.984411376953125,9.775824546813965,1.7118542194366455,-0.7015010714530945
1760285884281411600,0.99441162109375,9.905111312866211,1.6424223184585571,-0.6943184733390808
1760285884291411500,1.004411376953125,9.902717590332031,1.501164436340332,-0.5363011956214905
1760285884301411600,1.01441162109375,9.85962200164795,1.3431471586227417,-0.42856210470199585
1760285884311411500,1.024411376953125,9.840468406677246,1.2210428714752197,-0.31603461503982544
1760285884321411600,1.03441162109375,9.847650527954102,1.137245774269104,-0.21787235140800476
1760285884331411500,1.044411376953125,9.85962200164795,1.0845733880996704,-0.16519992053508759
1760285884341411600,1.05441162109375,9.8691987991333,1.048660397529602,-0.14604631066322327
1760285884351411500,1.064411376953125,9.876380920410156,1.0319008827209473,-0.13407529890537262
1760285884361411600,1.07441162109375,9.866804122924805,1.0414776802062988,-0.15322890877723694
1760285884371411500,1.084411376953125,9.833285331726074,1.070208191871643,-0.21308395266532898
1760285884381411600,1.09441162109375,9.778219223022461,1.1180921792984009,-0.2825157940387726
1760285884391411500,1.104411376953125,9.715970039367676,1.1779472827911377,-0.33997663855552673
1760285884401411600,1.11441162109375,9.65611457824707,1.2282254695892334,-0.38307225704193115
1760285884411411200,1.1244111328125,9.610625267028809,1.2617442607879639,-0.395043283700943
1760285884421411000,1.1344111328125,9.58668327331543,1.2689268589019775,-0.3902548849582672
1760285884431411200,1.1444111328125,9.58907699584961,1.2737152576446533,-0.3758896589279175
1760285884441411000,1.1544111328125,9.617807388305664,1.2761094570159912,-0.3663128614425659
1760285884451411200,1.1644111328125,9.65611457824707,1.278503656387329,-0.3734954595565796
1760285884461411000,1.1744111328125,9.756670951843262,1.2832920551300049,-0.3998316824436188
1760285884471411200,1.1844111328125,9.92665958404541,1.2952631711959839,-0.4620809257030487
1760285884481411000,1.1944111328125,10.012850761413574,1.335964560508728,-0.5363011956214905
1760285884491411200,1.2044111328125,10.027215957641602,1.381454348564148,-0.6105214357376099
1760285884501411000,1.2144111328125,9.981725692749023,1.4221558570861816,-0.6607996821403503
1760285884511411200,1.2244111328125,9.89553451538086,1.4508862495422363,-0.6823474764823914
1760285884521411000,1.2344111328125,9.80216121673584,1.4628572463989258,-0.6799532771110535
1760285884531411200,1.2444111328125,9.725546836853027,1.4700398445129395,-0.6871358752250671
1760285884541411000,1.2544111328125,9.67766284942627,1.4772224426269531,-0.7015010714530945
1760285884551411200,1.2644111328125,9.663297653198242,1.479616641998291,-0.7038952708244324
1760285884561411000,1.2744111328125,9.658509254455566,1.4772224426269531,-0.6991068720817566
1760285884571411200,1.2844111328125,9.665691375732422,1.45806884765625,-0.6799532771110535
1760285884581411000,1.2944111328125,9.694421768188477,1.4269442558288574,-0.6488286852836609
1760285884591411200,1.3044111328125,9.735123634338379,1.41257905960083,-0.6248866319656372
1760285884601411000,1.3144111328125,9.771036148071289,1.3982137441635132,-0.6200982332229614
1760285884611411200,1.3244111328125,9.778219223022461,1.3958195447921753,-0.6153098344802856
1760285884621411000,1.3344111328125,9.74470043182373,1.3934253454208374,-0.608127236366272
1760285884631411200,1.3444111328125,9.687239646911621,1.3982137441635132,-0.6105214357376099
1760285884641411000,1.3544111328125,9.627384185791016,1.403002142906189,-0.6153098344802856
1760285884651411200,1.3644111328125,9.581894874572754,1.4077905416488647,-0.6177040338516235
1760285884661411000,1.3744111328125,9.555558204650879,1.403002142906189,-0.6105214357376099
1760285884671411200,1.3844111328125,9.557952880859375,1.3958195447921753,-0.6153098344802856
1760285884681411000,1.3944111328125,9.598653793334961,1.3838485479354858,-0.6177040338516235
1760285884691411200,1.4044111328125,9.646537780761719,1.359906554222107,-0.5889736413955688
1760285884701411000,1.4144111328125,9.670479774475098,1.338358759880066,-0.5626373887062073
1760285884711411500,1.424411376953125,9.670479774475098,1.3239935636520386,-0.5530605912208557
1760285884721411600,1.43441162109375,9.65372085571289,1.3215993642807007,-0.5626373887062073
1760285884731411500,1.444411376953125,9.632172584533691,1.3239935636520386,-0.569819986820221
1760285884741412000,1.454412109375,9.610625267028809,1.3287819623947144,-0.5746083855628967
1760285884751412000,1.464411865234375,9.58907699584961,1.3287819623947144,-0.5817909836769104
1760285884761412000,1.474412109375,9.567529678344727,1.3239935636520386,-0.5841852426528931
1760285884771412000,1.484411865234375,9.543587684631348,1.316810965538025,-0.5746083855628967
1760285884781412000,1.494412109375,9.519645690917969,1.3000515699386597,-0.5530605912208557
1760285884791412000,1.504411865234375,9.519645690917969,1.2856862545013428,-0.5315127968788147
1760285884801412000,1.514412109375,9.538799285888672,1.2713210582733154,-0.507570743560791
1760285884811412000,1.524411865234375,9.567529678344727,1.2545616626739502,-0.4812345504760742
1760285884821412000,1.534412109375,9.601048469543457,1.235408067703247,-0.44771572947502136
1760285884831412000,1.544411865234375,9.62020206451416,1.213860273361206,-0.4213795065879822
1760285884841412000,1.554412109375,9.62020206451416,1.2090718746185303,-0.40701428055763245
1760285884851412000,1.564411865234375,9.598653793334961,1.213860273361206,-0.40462008118629456
1760285884861412000,1.574412109375,9.574711799621582,1.2210428714752197,-0.4165911078453064
1760285884871412000,1.584411865234375,9.560346603393555,1.2425906658172607,-0.45010992884635925
1760285884881412000,1.594412109375,9.555558204650879,1.2689268589019775,-0.4812345504760742
1760285884891412000,1.604411865234375,9.557952880859375,1.2952631711959839,-0.507570743560791
1760285884901412000,1.614412109375,9.56274127960205,1.314416766166687,-0.5267243981361389
1760285884911412000,1.624411865234375,9.567529678344727,1.3263877630233765,-0.5410895943641663
1760285884921412000,1.634412109375,9.577106475830078,1.3311761617660522,-0.5506663918495178
1760285884931412000,1.644411865234375,9.598653793334961,1.338358759880066,-0.5434837937355042
1760285884941412000,1.654412109375,9.632172584533691,1.3407529592514038,-0.5434837937355042
1760285884951412000,1.664411865234375,9.672874450683594,1.3407529592514038,-0.5386953949928284
1760285884966067200,1.679067138671875,9.703998565673828,1.3407529592514038,-0.5482721924781799
1760285884976067300,1.6890673828125,9.723152160644531,1.335964560508728,-0.5578489899635315
1760285884986067200,1.699067138671875,9.742305755615234,1.3287819623947144,-0.5602431893348694
1760285884996067300,1.7090673828125,9.756670951843262,1.3239935636520386,-0.569819986820221
1760285885006067200,1.719067138671875,9.763854026794434,1.314416766166687,-0.6009446382522583
1760285885016067300,1.7290673828125,9.773430824279785,1.3192051649093628,-0.6344634294509888
1760285885026067200,1.739067138671875,9.783007621765137,1.3239935636520386,-0.6560112833976746
1760285885036067300,1.7490673828125,9.783007621765137,1.3263877630233765,-0.6703764796257019
1760285885046066700,1.759066650390625,9.773430824279785,1.3263877630233765,-0.6751648783683777
1760285885056066800,1.76906689453125,9.754277229309082,1.3263877630233765,-0.6703764796257019
1760285885066066400,1.77906640625,9.737517356872559,1.3192051649093628,-0.6560112833976746
1760285885076066300,1.78906640625,9.720758438110352,1.3072341680526733,-0.6392518281936646
1760285885086066400,1.79906640625,9.706393241882324,1.2976573705673218,-0.6224924325942993
1760285885096066300,1.80906640625,9.687239646911621,1.292868971824646,-0.6033388376235962
1760285885106066400,1.81906640625,9.665691375732422,1.292868971824646,-0.5746083855628967
1760285885116066300,1.82906640625,9.639355659484863,1.2880805730819702,-0.5434837937355042
1760285885126066400,1.83906640625,9.613018989562988,1.280897855758667,-0.524330198764801
1760285885136066600,1.849066650390625,9.596260070800781,1.2737152576446533,-0.5123591423034668
1760285885146066400,1.85906640625,9.574711799621582,1.2761094570159912,-0.5099649429321289
1760285885156066600,1.869066650390625,9.560346603393555,1.2761094570159912,-0.5171475410461426
1760285885166066400,1.87906640625,9.557952880859375,1.278503656387329,-0.5195417404174805
1760285885176066300,1.88906640625,9.574711799621582,1.2761094570159912,-0.5123591423034668
1760285885186066400,1.89906640625,9.596260070800781,1.2641384601593018,-0.49559974670410156
1760285885196066300,1.90906640625,9.615413665771484,1.2545616626739502,-0.47165772318840027
1760285885206066400,1.91906640625,9.615413665771484,1.237802267074585,-0.45489832758903503
1760285885216066300,1.92906640625,9.605836868286133,1.2282254695892334,-0.44532153010368347
1760285885226066400,1.93906640625,9.58907699584961,1.2234370708465576,-0.4381389021873474
1760285885236066300,1.94906640625,9.584288597106934,1.216254472732544,-0.42377370595932007
1760285885246066400,1.95906640625,9.598653793334961,1.2042834758758545,-0.40222588181495667
1760285885256066300,1.96906640625,9.62259578704834,1.1875240802764893,-0.3758896589279175
1760285885266066400,1.97906640625,9.648932456970215,1.1659762859344482,-0.3495534360408783
1760285885276066300,1.98906640625,9.665691375732422,1.1563993692398071,-0.33518823981285095
1760285885286066400,1.99906640625,9.672874450683594,1.1635819673538208,-0.3423708379268646
1760285885296066300,2.00906640625,9.675268173217773,1.1755530834197998,-0.36152446269989014
1760285885306066400,2.01906640625,9.68005657196045,1.1851298809051514,-0.38067805767059326
1760285885316066300,2.02906640625,9.692028045654297,1.1971008777618408,-0.395043283700943
1760285885326066400,2.03906640625,9.708786964416504,1.2066776752471924,-0.40701428055763245
1760285885336066300,2.04906640625,9.725546836853027,1.216254472732544,-0.43335050344467163
1760285885346066400,2.05906640625,9.742305755615234,1.235408067703247,-0.4812345504760742
1760285885356066300,2.06906640625,9.761459350585938,1.2641384601593018,-0.5386953949928284
1760285885366066700,2.079066650390625,9.775824546813965,1.3000515699386597,-0.5937620401382446
1760285885376066800,2.08906689453125,9.78061294555664,1.3287819623947144,-0.629675030708313
1760285885386067000,2.09906689453125,9.778219223022461,1.335964560508728,-0.6440402865409851
1760285885396066800,2.10906689453125,9.759065628051758,1.338358759880066,-0.6440402865409851
1760285885406067000,2.11906689453125,9.735123634338379,1.3335703611373901,-0.646434485912323
1760285885416066800,2.12906689453125,9.720758438110352,1.3287819623947144,-0.6344634294509888
1760285885426066700,2.139066650390625,9.720758438110352,1.3239935636520386,-0.6248866319656372
1760285885436066800,2.14906689453125,9.725546836853027,1.3192051649093628,-0.6200982332229614
1760285885446066700,2.159066650390625,9.727940559387207,1.3096283674240112,-0.6153098344802856
1760285885456066800,2.16906689453125,9.71357536315918,1.3000515699386597,-0.608127236366272
1760285885466066700,2.179066650390625,9.67766284942627,1.2856862545013428,-0.5985504388809204
1760285885476066800,2.18906689453125,9.646537780761719,1.2737152576446533,-0.5841852426528931
1760285885486066700,2.199066650390625,9.62020206451416,1.256955862045288,-0.5674257874488831
1760285885496066800,2.20906689453125,9.605836868286133,1.2425906658172607,-0.5506663918495178
1760285885506066700,2.219066650390625,9.591471672058105,1.2306196689605713,-0.545877993106842
1760285885516066800,2.22906689453125,9.567529678344727,1.2282254695892334,-0.5410895943641663
1760285885526066700,2.239066650390625,9.538799285888672,1.2258312702178955,-0.5339069962501526
1760285885536066800,2.24906689453125,9.517251014709473,1.2234370708465576,-0.5267243981361389
1760285885546066700,2.259066650390625,9.517251014709473,1.2210428714752197,-0.5219359993934631
1760285885556066800,2.26906689453125,9.536404609680176,1.2234370708465576,-0.5195417404174805
1760285885566066700,2.279066650390625,9.569923400878906,1.2282254695892334,-0.5195417404174805
1760285885576066800,2.28906689453125,9.610625267028809,1.2330138683319092,-0.5267243981361389
1760285885586066700,2.299066650390625,9.65372085571289,1.2330138683319092,-0.5339069962501526
1760285885596066800,2.30906689453125,9.672874450683594,1.2425906658172607,-0.5530605912208557
1760285885606066700,2.319066650390625,9.670479774475098,1.256955862045288,-0.586579442024231
1760285885616066800,2.32906689453125,9.65611457824707,1.2689268589019775,-0.6105214357376099
1760285885626067000,2.33906689453125,9.65372085571289,1.278503656387329,-0.608127236366272
1760285885636066800,2.34906689453125,9.65372085571289,1.2761094570159912,-0.5961562395095825
1760285885646067000,2.35906689453125,9.658509254455566,1.2641384601593018,-0.5817909836769104
1760285885656066800,2.36906689453125,9.665691375732422,1.256955862045288,-0.5722141861915588
1760285885666067000,2.37906689453125,9.675268173217773,1.259350061416626,-0.5674257874488831
1760285885676066800,2.38906689453125,9.67766284942627,1.2689268589019775,-0.5770025849342346
1760285885686066700,2.399066650390625,9.672874450683594,1.2856862545013428,-0.5961562395095825
1760285885696066800,2.40906689453125,9.670479774475098,1.3072341680526733,-0.6129156351089478
1760285885706066700,2.419066650390625,9.68005657196045,1.3239935636520386,-0.6272808313369751
1760285885716066800,2.42906689453125,9.711181640625,1.3407529592514038,-0.6320692300796509
1760285885726066700,2.439066650390625,9.74709415435791,1.3527239561080933,-0.6368576288223267
1760285885736066800,2.44906689453125,9.78061294555664,1.359906554222107,-0.6416460275650024
1760285885746066700,2.459066650390625,9.792584419250488,1.3694833517074585,-0.6488286852836609
1760285885756066800,2.46906689453125,9.783007621765137,1.381454348564148,-0.6536170840263367
1760285885766066700,2.479066650390625,9.761459350585938,1.3958195447921753,-0.6631938815116882
1760285885776066800,2.48906689453125,9.735123634338379,1.41257905960083,-0.6823474764823914
1760285885786066700,2.499066650390625,9.71357536315918,1.4317326545715332,-0.7015010714530945
1760285885796066800,2.50906689453125,9.71357536315918,1.4484920501708984,-0.7110779285430908
1760285885806066700,2.519066650390625,9.299378395080566,1.501164436340332,-0.7589619159698486
1760285885816066800,2.52906689453125,9.356839179992676,1.4772224426269531,-0.7110779285430908
1760285885826066700,2.539066650390625,9.340080261230469,1.4245500564575195,-0.6751648783683777
1760285885836066800,2.54906689453125,9.387964248657227,1.3623007535934448,-0.608127236366272
1760285885846066700,2.559066650390625,9.435848236083984,1.3120225667953491,-0.5602431893348694
1760285885856066800,2.56906689453125,9.505280494689941,1.2689268589019775,-0.545877993106842
1760285885866066700,2.579066650390625,9.579500198364258,1.237802267074585,-0.5602431893348694
1760285885876066800,2.58906689453125,9.641749382019043,1.213860273361206,-0.586579442024231
1760285885886067000,2.59906689453125,9.684844970703125,1.192312479019165,-0.6248866319656372
1760285885896066800,2.60906689453125,9.696816444396973,1.1827356815338135,-0.6584054827690125
1760285885906067000,2.61906689453125,9.6896333694458,1.1779472827911377,-0.6871358752250671
1760285885916066800,2.62906689453125,9.670479774475098,1.1755530834197998,-0.6943184733390808
1760285885926066700,2.639066650390625,9.641749382019043,1.170764684677124,-0.6823474764823914
1760285885936066800,2.64906689453125,9.605836868286133,1.1683704853057861,-0.667982280254364
1760285885946066700,2.659066650390625,9.591471672058105,1.170764684677124,-0.6703764796257019
1760285885956066800,2.66906689453125,9.601048469543457,1.1779472827911377,-0.6823474764823914
1760285885966066700,2.679066650390625,9.608230590820312,1.1899182796478271,-0.6991068720817566
1760285885976066800,2.68906689453125,9.615413665771484,1.2114660739898682,-0.7134721279144287
1760285885986066700,2.699066650390625,9.617807388305664,1.2282254695892334,-0.7326257228851318
1760285886006066700,2.719066650390625,9.651326179504395,1.259350061416626,-0.7589619159698486
1760285886016066800,2.72906689453125,9.651326179504395,1.2665326595306396,-0.7589619159698486
1760285886026066700,2.739066650390625,9.65611457824707,1.2689268589019775,-0.751779317855835
1760285886036066800,2.74906689453125,9.665691375732422,1.2665326595306396,-0.7469909191131592
1760285886046066700,2.759066650390625,9.670479774475098,1.2689268589019775,-0.7469909191131592
1760285886056066800,2.76906689453125,9.67766284942627,1.2713210582733154,-0.7350199222564697
1760285886066066700,2.779066650390625,9.696816444396973,1.2761094570159912,-0.7254431247711182
1760285886076066800,2.78906689453125,9.708786964416504,1.2761094570159912,-0.7230489253997803
1760285886086066700,2.799066650390625,9.720758438110352,1.278503656387329,-0.7206547260284424
1760285886096066800,2.80906689453125,9.737517356872559,1.2761094570159912,-0.7230489253997803
1760285886116066800,2.82906689453125,9.783007621765137,1.2880805730819702,-0.7254431247711182
1760285886126067000,2.83906689453125,9.78061294555664,1.290474772453308,-0.7182605266571045
1760285886136066800,2.84906689453125,9.761459350585938,1.2737152576446533,-0.7110779285430908
1760285886146067000,2.85906689453125,9.739912033081055,1.2401964664459229,-0.689530074596405
1760285886156066800,2.86906689453125,9.735123634338379,1.216254472732544,-0.667982280254364
1760285886166067000,2.87906689453125,9.74470043182373,1.2042834758758545,-0.6536170840263367
1760285886176066800,2.88906689453125,9.754277229309082,1.1971008777618408,-0.6440402865409851
1760285886186067000,2.89906689453125,9.74470043182373,1.1875240802764893,-0.6320692300796509
1760285886196066800,2.90906689453125,9.711181640625,1.1755530834197998,-0.6129156351089478
1760285886206067000,2.91906689453125,9.670479774475098,1.158793568611145,-0.5961562395095825
1760285886216066800,2.92906689453125,9.648932456970215,1.1444283723831177,-0.6033388376235962
1760285886226067000,2.93906689453125,9.632172584533691,1.137245774269104,-0.6200982332229614
1760285886236066800,2.94906689453125,9.615413665771484,1.1228805780410767,-0.6224924325942993
1760285886246067000,2.95906689453125,9.581894874572754,1.094150185585022,-0.608127236366272
1760285886256066800,2.96906689453125,9.541193008422852,1.0845733880996704,-0.5841852426528931
1760285886266067000,2.97906689453125,9.512462615966797,1.0845733880996704,-0.569819986820221
1760285886276066800,2.98906689453125,9.52922248840332,1.070208191871643,-0.5578489899635315
1760285886286067000,2.99906689453125,9.610625267028809,1.0534487962722778,-0.545877993106842
1760285886296066800,3.00906689453125,9.727940559387207,1.0127472877502441,-0.5339069962501526
1760285886306067000,3.01906689453125,9.80216121673584,0.9911994934082031,-0.5171475410461426
1760285886316066800,3.02906689453125,9.771036148071289,0.9792284965515137,-0.5099649429321289
1760285886326067000,3.03906689453125,9.67766284942627,0.9816226959228516,-0.4884171485900879
1760285886336066800,3.04906689453125,9.545981407165527,1.0199298858642578,-0.48602294921875
1760285886346067000,3.05906689453125,9.493309020996094,1.2761094570159912,-0.689530074596405
1760285886356066800,3.06906689453125,9.534010887145996,1.381454348564148,-0.9169792532920837
1760285886366067000,3.07906689453125,9.615413665771484,1.37906014919281,-0.9840168952941895
1760285886376066800,3.08906689453125,9.668086051940918,1.37906014919281,-0.993593692779541
1760285886386067000,3.09906689453125,9.636960983276367,1.3718775510787964,-0.9696516990661621
1760285886396066800,3.10906689453125,9.550769805908203,1.338358759880066,-0.9217676520347595
1760285886406067000,3.11906689453125,9.495702743530273,1.3000515699386597,-0.8738836050033569
1760285886416066800,3.12906689453125,9.517251014709473,1.2641384601593018,-0.8259995579719543
1760285886426066700,3.139066650390625,9.608230590820312,1.2258312702178955,-0.8020575642585754
1760285886436066800,3.14906689453125,9.725546836853027,1.1851298809051514,-0.7924807667732239
1760285886446066700,3.159066650390625,9.823708534240723,1.1516109704971313,-0.7781155705451965
1760285886456066800,3.16906689453125,9.883563995361328,1.1348515748977661,-0.7661445140838623
1760285886466066700,3.179066650390625,9.905111312866211,1.113303780555725,-0.7541735172271729
1760285886486066700,3.199066650390625,9.873987197875977,1.0845733880996704,-0.6799532771110535
1760285886496066800,3.20906689453125,9.823708534240723,1.0989385843276978,-0.6655880808830261
1760285886506066700,3.219066650390625,9.761459350585938,1.1252747774124146,-0.6799532771110535
1760285886516066800,3.22906689453125,9.703998565673828,1.1180921792984009,-0.6775590777397156
1760285886526066700,3.239066650390625,9.696816444396973,1.1252747774124146,-0.6440402865409851
1760285886536066800,3.24906689453125,9.720758438110352,1.1300631761550903,-0.6248866319656372
1760285886546066700,3.259066650390625,9.766247749328613,1.113303780555725,-0.6272808313369751
1760285886556066800,3.26906689453125,9.83807373046875,1.0749965906143188,-0.5985504388809204
1760285886566066700,3.279066650390625,9.914688110351562,1.0534487962722778,-0.5674257874488831
1760285886576066800,3.28906689453125,9.976937294006348,1.0271124839782715,-0.5530605912208557
1760285886586066700,3.299066650390625,10.010457038879395,0.9983820915222168,-0.5482721924781799
1760285886596066800,3.30906689453125,10.012850761413574,0.9888052940368652,-0.5315127968788147
1760285886606066700,3.319066650390625,9.991303443908691,0.9959878921508789,-0.5123591423034668
1760285886616066800,3.32906689453125,9.955389976501465,1.0055646896362305,-0.5123591423034668
1760285886626067000,3.33906689453125,9.907505989074707,1.015141487121582,-0.5267243981361389
1760285886636066800,3.34906689453125,9.850045204162598,1.0319008827209473,-0.5434837937355042
1760285886646067000,3.35906689453125,9.773430824279785,1.0534487962722778,-0.5554547905921936
1760285886656066800,3.36906689453125,9.6896333694458,1.0630255937576294,-0.5530605912208557
1760285886666067000,3.37906689453125,9.605836868286133,1.0678139925003052,-0.545877993106842
1760285886676066800,3.38906689453125,9.536404609680176,1.0630255937576294,-0.5291185975074768
1760285886686066700,3.399066650390625,9.495702743530273,1.05105459690094,-0.507570743560791
1760285886696066800,3.40906689453125,9.483732223510742,1.0414776802062988,-0.49320554733276367
1760285886706066700,3.419066650390625,9.488520622253418,1.0319008827209473,-0.4884171485900879
1760285886716066800,3.42906689453125,9.507674217224121,1.0319008827209473,-0.5003881454467773
1760285886726066700,3.439066650390625,9.526827812194824,1.039083480834961,-0.524330198764801
1760285886736066800,3.44906689453125,9.536404609680176,1.0534487962722778,-0.5554547905921936
1760285886746066700,3.459066650390625,9.538799285888672,1.072602391242981,-0.5746083855628967
1760285886756066800,3.46906689453125,9.524434089660645,1.0773907899856567,-0.5817909836769104
1760285886766066700,3.479066650390625,9.505280494689941,1.0797849893569946,-0.5722141861915588
1760285886776066800,3.48906689453125,9.488520622253418,1.0749965906143188,-0.5506663918495178
1760285886786066700,3.499066650390625,9.483732223510742,1.0630255937576294,-0.5339069962501526
1760285886796066800,3.50906689453125,9.493309020996094,1.0558429956436157,-0.5267243981361389
1760285886806066700,3.519066650390625,9.524434089660645,1.0606313943862915,-0.524330198764801
1760285886816066800,3.52906689453125,9.572318077087402,1.070208191871643,-0.5267243981361389
1760285886826066700,3.539066650390625,9.62020206451416,1.072602391242981,-0.5315127968788147
1760285886836066800,3.54906689453125,9.660902976989746,1.072602391242981,-0.5482721924781799
1760285886846066700,3.559066650390625,9.6896333694458,1.0821791887283325,-0.569819986820221
1760285886856066800,3.56906689453125,9.708786964416504,1.0965443849563599,-0.5793967843055725
1760285886866066700,3.579066650390625,9.723152160644531,1.1037269830703735,-0.5722141861915588
1760285886876066800,3.58906689453125,9.730335235595703,1.1085153818130493,-0.5674257874488831
1760285886886067000,3.59906689453125,9.732728958129883,1.1085153818130493,-0.5530605912208557
1760285886896066800,3.60906689453125,9.735123634338379,1.1085153818130493,-0.5410895943641663
1760285886906067000,3.61906689453125,9.751882553100586,1.113303780555725,-0.5315127968788147
1760285886916066800,3.62906689453125,9.783007621765137,1.113303780555725,-0.5315127968788147
1760285886926066700,3.639066650390625,9.818920135498047,1.113303780555725,-0.545877993106842
1760285886936066800,3.64906689453125,9.854833602905273,1.1180921792984009,-0.5578489899635315
1760285886946066700,3.659066650390625,9.87159252166748,1.1204863786697388,-0.5722141861915588
1760285886956066800,3.66906689453125,9.876380920410156,1.1180921792984009,-0.5817909836769104
1760285886966066700,3.679066650390625,9.87159252166748,1.113303780555725,-0.5817909836769104
1760285886976066800,3.68906689453125,9.862015724182129,1.1109095811843872,-0.5817909836769104
1760285886986066700,3.699066650390625,9.840468406677246,1.1061211824417114,-0.586579442024231
1760285886996066800,3.70906689453125,9.814131736755371,1.1013327836990356,-0.6009446382522583
1760285887006066700,3.719066650390625,9.783007621765137,1.1037269830703735,-0.6129156351089478
1760285887016066800,3.72906689453125,9.74709415435791,1.1037269830703735,-0.6200982332229614
1760285887026066700,3.739066650390625,9.71357536315918,1.1109095811843872,-0.6344634294509888
1760285887036066800,3.74906689453125,9.6896333694458,1.1085153818130493,-0.6392518281936646
1760285887046066700,3.759066650390625,9.687239646911621,1.1013327836990356,-0.6320692300796509
1760285887056066800,3.76906689453125,9.699210166931152,1.091755986213684,-0.6272808313369751
1760285887066066700,3.779066650390625,9.708786964416504,1.0773907899856567,-0.6224924325942993
1760285887076066800,3.78906689453125,9.711181640625,1.070208191871643,-0.6224924325942993
1760285887086066700,3.799066650390625,9.708786964416504,1.072602391242981,-0.629675030708313
1760285887096066800,3.80906689453125,9.694421768188477,1.0749965906143188,-0.6344634294509888
1760285887106066700,3.819066650390625,9.675268173217773,1.0797849893569946,-0.6320692300796509
1760285887116066800,3.82906689453125,9.651326179504395,1.0821791887283325,-0.6200982332229614
1760285887126067000,3.83906689453125,9.627384185791016,1.0749965906143188,-0.5985504388809204
1760285887136066800,3.84906689453125,9.613018989562988,1.070208191871643,-0.5817909836769104
1760285887146067000,3.85906689453125,9.608230590820312,1.0630255937576294,-0.5793967843055725
1760285887156066800,3.86906689453125,9.624990463256836,1.0582371950149536,-0.5746083855628967
1760285887166067000,3.87906689453125,9.648932456970215,1.0534487962722778,-0.5626373887062073
1760285887176066800,3.88906689453125,9.65611457824707,1.0438719987869263,-0.5602431893348694
1760285887186066700,3.899066650390625,9.65611457824707,1.036689281463623,-0.5554547905921936
1760285887196066800,3.90906689453125,9.665691375732422,1.0342950820922852,-0.5506663918495178
1760285887206066700,3.919066650390625,9.692028045654297,1.0342950820922852,-0.545877993106842
1760285887216066800,3.92906689453125,9.720758438110352,1.0342950820922852,-0.5482721924781799
1760285887226066700,3.939066650390625,9.737517356872559,1.0342950820922852,-0.5482721924781799
1760285887236066800,3.94906689453125,9.732728958129883,1.0414776802062988,-0.5386953949928284
1760285887246067000,3.95906689453125,9.701604843139648,1.0534487962722778,-0.5291185975074768
1760285887256066800,3.96906689453125,9.663297653198242,1.0630255937576294,-0.5171475410461426
1760285887266067000,3.97906689453125,9.634567260742188,1.0797849893569946,-0.507570743560791
1760285887276066800,3.98906689453125,9.605836868286133,1.1061211824417114,-0.5123591423034668
1760285887286067000,3.99906689453125,9.601048469543457,1.1252747774124146,-0.5339069962501526
1760285887296066800,4.00906689453125,9.591471672058105,1.139639973640442,-0.5602431893348694
1760285887306067000,4.01906689453125,9.58668327331543,1.1516109704971313,-0.5937620401382446
1760285887316066800,4.02906689453125,9.569923400878906,1.1635819673538208,-0.6344634294509888
1760285887326067000,4.03906689453125,9.538799285888672,1.1851298809051514,-0.6751648783683777
1760285887336066800,4.04906689453125,9.505280494689941,1.2018892765045166,-0.7086837291717529
1760285887346067000,4.05906689453125,9.481337547302246,1.2090718746185303,-0.7230489253997803
1760285887356066800,4.06906689453125,9.486125946044922,1.2090718746185303,-0.7326257228851318
1760285887366067000,4.07906689453125,9.519645690917969,1.1851298809051514,-0.7350199222564697
1760285887376066800,4.08906689453125,9.574711799621582,1.1659762859344482,-0.730231523513794
1760285887386067000,4.09906689453125,9.639355659484863,1.1348515748977661,-0.7206547260284424
1760285887396066800,4.10906689453125,9.694421768188477,1.0989385843276978,-0.7134721279144287
1760285887406067000,4.11906689453125,9.732728958129883,1.0606313943862915,-0.706289529800415
1760285887416066800,4.12906689453125,9.759065628051758,1.0247182846069336,-0.6943184733390808
1760285887426067000,4.13906689453125,9.78061294555664,0.9959878921508789,-0.6727706789970398
1760285887436066800,4.14906689453125,9.811738014221191,0.9864110946655273,-0.6584054827690125
1760285887446067000,4.15906689453125,9.842862129211426,0.9864110946655273,-0.6560112833976746
1760285887456066800,4.16906689453125,9.862015724182129,0.9888052940368652,-0.6655880808830261
1760285887466067000,4.17906689453125,9.866804122924805,0.9983820915222168,-0.6799532771110535
1760285887476066800,4.18906689453125,9.850045204162598,1.015141487121582,-0.6943184733390808
1760285887486067000,4.19906689453125,9.826103210449219,1.0295066833496094,-0.6943184733390808
1760285887496066800,4.20906689453125,9.797372817993164,1.0319008827209473,-0.6871358752250671
1760285887506067000,4.21906689453125,9.771036148071289,1.0295066833496094,-0.6775590777397156
1760285887516066800,4.22906689453125,9.74709415435791,1.0295066833496094,-0.6655880808830261
1760285887526067000,4.23906689453125,9.723152160644531,1.0247182846069336,-0.6488286852836609
1760285887536066800,4.24906689453125,9.703998565673828,1.01753568649292,-0.6320692300796509
1760285887546066700,4.259066650390625,9.701604843139648,1.01753568649292,-0.6153098344802856
1760285887556066800,4.26906689453125,9.71357536315918,1.01753568649292,-0.6105214357376099
1760285887566066700,4.279066650390625,9.730335235595703,1.0199298858642578,-0.6200982332229614
1760285887576066800,4.28906689453125,9.742305755615234,1.0247182846069336,-0.6344634294509888
1760285887586066700,4.299066650390625,9.751882553100586,1.0342950820922852,-0.6536170840263367
1760285887596066800,4.30906689453125,9.754277229309082,1.0438719987869263,-0.6751648783683777
1760285887606066700,4.319066650390625,9.751882553100586,1.0582371950149536,-0.6943184733390808
1760285887616066800,4.32906689453125,9.737517356872559,1.072602391242981,-0.7182605266571045
1760285887626067000,4.33906689453125,9.720758438110352,1.0773907899856567,-0.7326257228851318
1760285887636066800,4.34906689453125,9.711181640625,1.0893617868423462,-0.7398083209991455
1760285887646067000,4.35906689453125,9.706393241882324,1.091755986213684,-0.7565677165985107
1760285887656066800,4.36906689453125,9.718363761901855,1.0893617868423462,-0.7757213711738586
1760285887666067000,4.37906689453125,9.773430824279785,1.0845733880996704,-0.7781155705451965
1760285887676066800,4.38906689453125,9.854833602905273,1.0845733880996704,-0.7805097699165344
1760285887686066700,4.399066650390625,9.943418502807617,1.0845733880996704,-0.7876923680305481
1760285887696066800,4.40906689453125,9.976937294006348,1.072602391242981,-0.7733271718025208
1760285887706066700,4.419066650390625,9.98412036895752,1.072602391242981,-0.7374141216278076
1760285887716066800,4.42906689453125,9.96257209777832,1.0630255937576294,-0.6919242739677429
1760285887726066700,4.439066650390625,9.941024780273438,1.0462661981582642,-0.6440402865409851
1760285887736066800,4.44906689453125,9.919476509094238,1.0438719987869263,-0.6057330369949341
1760285887746066700,4.459066650390625,9.842862129211426,1.0606313943862915,-0.5841852426528931
1760285887756066800,4.46906689453125,9.730335235595703,1.0797849893569946,-0.5817909836769104
1760285887766066700,4.479066650390625,9.601048469543457,1.0965443849563599,-0.586579442024231
1760285887776066800,4.48906689453125,9.481337547302246,1.1085153818130493,-0.586579442024231
1760285887786066700,4.499066650390625,9.399934768676758,1.1204863786697388,-0.586579442024231
1760285887796066800,4.50906689453125,9.364022254943848,1.1180921792984009,-0.5961562395095825
1760285887806066700,4.519066650390625,9.3735990524292,1.1109095811843872,-0.6105214357376099
1760285887816066800,4.52906689453125,9.414299964904785,1.1037269830703735,-0.6248866319656372
1760285887826066700,4.539066650390625,9.459790229797363,1.0965443849563599,-0.629675030708313
1760285887836066800,4.54906689453125,9.49809741973877,1.0845733880996704,-0.6344634294509888
1760285887846066700,4.559066650390625,9.526827812194824,1.072602391242981,-0.6320692300796509
1760285887856066800,4.56906689453125,9.541193008422852,1.0606313943862915,-0.6272808313369751
1760285887866066700,4.579066650390625,9.5531644821167,1.0582371950149536,-0.6272808313369751
1760285887876066800,4.58906689453125,9.569923400878906,1.0582371950149536,-0.6224924325942993
1760285887886066700,4.599066650390625,9.593865394592285,1.0630255937576294,-0.6248866319656372
1760285887896066800,4.60906689453125,9.615413665771484,1.0654197931289673,-0.6224924325942993
1760285887906067000,4.61906689453125,9.636960983276367,1.072602391242981,-0.6224924325942993
1760285887916066800,4.62906689453125,9.670479774475098,1.0773907899856567,-0.6320692300796509
1760285887926066700,4.639066650390625,9.711181640625,1.0821791887283325,-0.6392518281936646
1760285887936066800,4.64906689453125,9.751882553100586,1.0869675874710083,-0.6392518281936646
1760285887946066700,4.659066650390625,9.78061294555664,1.0893617868423462,-0.6392518281936646
1760285887956066800,4.66906689453125,9.787796020507812,1.0893617868423462,-0.6200982332229614
1760285887966066700,4.679066650390625,9.778219223022461,1.0893617868423462,-0.608127236366272
1760285887976066800,4.68906689453125,9.759065628051758,1.0845733880996704,-0.6009446382522583
1760285887986066700,4.699066650390625,9.74470043182373,1.0821791887283325,-0.586579442024231
1760285887996066800,4.70906689453125,9.737517356872559,1.0773907899856567,-0.5746083855628967
1760285888006066700,4.719066650390625,9.737517356872559,1.0678139925003052,-0.5578489899635315
1760285888016066800,4.72906689453125,9.74470043182373,1.0630255937576294,-0.5410895943641663
1760285888026066700,4.739066650390625,9.742305755615234,1.0630255937576294,-0.5267243981361389
1760285888036066800,4.74906689453125,9.732728958129883,1.0678139925003052,-0.5195417404174805
1760285888046066700,4.759066650390625,9.723152160644531,1.070208191871643,-0.524330198764801
1760285888056066800,4.76906689453125,9.720758438110352,1.0773907899856567,-0.5315127968788147
1760285888066066700,4.779066650390625,9.730335235595703,1.0893617868423462,-0.5386953949928284
1760285888076066800,4.78906689453125,9.751882553100586,1.0965443849563599,-0.545877993106842
1760285888086066700,4.799066650390625,9.775824546813965,1.1013327836990356,-0.5554547905921936
1760285888096066800,4.80906689453125,9.783007621765137,1.1037269830703735,-0.5722141861915588
1760285888106066700,4.819066650390625,9.790189743041992,1.1061211824417114,-0.5817909836769104
1760285888116066800,4.82906689453125,9.790189743041992,1.1061211824417114,-0.5770025849342346
1760285888126066700,4.839066650390625,9.783007621765137,1.0989385843276978,-0.5722141861915588
1760285888136066800,4.84906689453125,9.773430824279785,1.0869675874710083,-0.5530605912208557
1760285888146066700,4.859066650390625,9.766247749328613,1.072602391242981,-0.5315127968788147
1760285888156066800,4.86906689453125,9.730335235595703,1.0678139925003052,-0.5171475410461426
1760285888166066700,4.879066650390625,9.603442192077637,1.0821791887283325,-0.5291185975074768
1760285888176066800,4.88906689453125,9.541193008422852,1.1013327836990356,-0.5482721924781799
1760285888186066700,4.899066650390625,9.519645690917969,1.1061211824417114,-0.5578489899635315
1760285888196066800,4.90906689453125,9.550769805908203,1.0869675874710083,-0.5650315880775452
1760285888206066700,4.919066650390625,9.62020206451416,1.0462661981582642,-0.5578489899635315
1760285888216066800,4.92906689453125,9.701604843139648,1.0079588890075684,-0.5434837937355042
1760285888226066700,4.939066650390625,9.751882553100586,0.9911994934082031,-0.5291185975074768
1760285888236066800,4.94906689453125,9.763854026794434,0.9840168952941895,-0.5315127968788147
1760285888246066700,4.959066650390625,9.766247749328613,0.9864110946655273,-0.5410895943641663
1760285888256066800,4.96906689453125,9.763854026794434,0.9911994934082031,-0.5315127968788147
1760285888266066700,4.979066650390625,9.751882553100586,0.9983820915222168,-0.5219359993934631
1760285888276066800,4.98906689453125,9.725546836853027,1.0031704902648926,-0.5123591423034668
1760285888286066700,4.999066650390625,9.672874450683594,1.0103530883789062,-0.5027823448181152
1760285888296066800,5.00906689453125,9.613018989562988,1.0271124839782715,-0.49799394607543945
1760285888306066700,5.019066650390625,9.56274127960205,1.0462661981582642,-0.49320554733276367
1760285888316066800,5.02906689453125,9.534010887145996,1.0678139925003052,-0.5099649429321289
1760285888326066700,5.039066650390625,9.536404609680176,1.0845733880996704,-0.5363011956214905
1760285888336066800,5.04906689453125,9.569923400878906,1.094150185585022,-0.5506663918495178
1760285888346066700,5.059066650390625,9.610625267028809,1.091755986213684,-0.5482721924781799
1760285888356066800,5.06906689453125,9.648932456970215,1.0773907899856567,-0.5386953949928284
1760285888366066700,5.079066650390625,9.670479774475098,1.0630255937576294,-0.524330198764801
1760285888376066800,5.08906689453125,9.675268173217773,1.0534487962722778,-0.5123591423034668
1760285888386066700,5.099066650390625,9.663297653198242,1.0534487962722778,-0.5147533416748047
1760285888396066800,5.10906689453125,9.651326179504395,1.0654197931289673,-0.5291185975074768
1760285888406066700,5.119066650390625,9.65611457824707,1.0869675874710083,-0.5434837937355042
1760285888416066800,5.12906689453125,9.68005657196045,1.0965443849563599,-0.545877993106842
1760285888426066700,5.139066650390625,9.732728958129883,1.094150185585022,-0.5434837937355042
1760285888436066800,5.14906689453125,9.797372817993164,1.0869675874710083,-0.5363011956214905
1760285888446066700,5.159066650390625,9.852438926696777,1.0773907899856567,-0.5315127968788147
1760285888456066800,5.16906689453125,9.89314079284668,1.0678139925003052,-0.5267243981361389
1760285888466066700,5.179066650390625,9.907505989074707,1.0606313943862915,-0.5291185975074768
1760285888476066800,5.18906689453125,9.907505989074707,1.0606313943862915,-0.5267243981361389
1760285888486066700,5.199066650390625,9.909899711608887,1.0654197931289673,-0.524330198764801
1760285888496066800,5.20906689453125,9.909899711608887,1.070208191871643,-0.5147533416748047
1760285888506066700,5.219066650390625,9.89553451538086,1.070208191871643,-0.5410895943641663
1760285888516066800,5.22906689453125,9.852438926696777,1.0797849893569946,-0.569819986820221
1760285888536066800,5.24906689453125,9.756670951843262,1.115697979927063,-0.5985504388809204
1760285888546066700,5.259066650390625,9.725546836853027,1.1180921792984009,-0.5961562395095825
1760285888556066800,5.26906689453125,9.703998565673828,1.1109095811843872,-0.5961562395095825
1760285888566066700,5.279066650390625,9.687239646911621,1.1085153818130493,-0.5913678407669067
1760285888576066800,5.28906689453125,9.675268173217773,1.1109095811843872,-0.5841852426528931
1760285888586066700,5.299066650390625,9.65611457824707,1.1109095811843872,-0.586579442024231
1760285888596066800,5.30906689453125,9.629778861999512,1.113303780555725,-0.6009446382522583
1760285888606066700,5.319066650390625,9.608230590820312,1.113303780555725,-0.6129156351089478
1760285888616066800,5.32906689453125,9.598653793334961,1.1204863786697388,-0.6224924325942993
1760285888626066700,5.339066650390625,9.596260070800781,1.1228805780410767,-0.6320692300796509
1760285888636066800,5.34906689453125,9.596260070800781,1.1276689767837524,-0.6344634294509888
1760285888646066700,5.359066650390625,9.584288597106934,1.1300631761550903,-0.6392518281936646
1760285888656066800,5.36906689453125,9.56274127960205,1.1348515748977661,-0.6416460275650024
1760285888666066700,5.379066650390625,9.538799285888672,1.1348515748977661,-0.6416460275650024
1760285888676066800,5.38906689453125,9.52922248840332,1.1300631761550903,-0.6272808313369751
1760285888686066700,5.399066650390625,9.541193008422852,1.1109095811843872,-0.6033388376235962
1760285888696066800,5.40906689453125,9.557952880859375,1.0893617868423462,-0.5817909836769104
1760285888706066700,5.419066650390625,9.577106475830078,1.070208191871643,-0.5578489899635315
1760285888716066800,5.42906689453125,9.601048469543457,1.0582371950149536,-0.5410895943641663
1760285888726066700,5.439066650390625,9.624990463256836,1.05105459690094,-0.5315127968788147
1760285888736066800,5.44906689453125,9.65372085571289,1.048660397529602,-0.5315127968788147
1760285888746066700,5.459066650390625,9.668086051940918,1.05105459690094,-0.5434837937355042
1760285888756066800,5.46906689453125,9.68005657196045,1.0558429956436157,-0.5530605912208557
1760285888766066700,5.479066650390625,9.696816444396973,1.0582371950149536,-0.5554547905921936
1760285888776066800,5.48906689453125,9.718363761901855,1.05105459690094,-0.545877993106842
1760285888786066700,5.499066650390625,9.74709415435791,1.039083480834961,-0.5291185975074768
1760285888796066800,5.50906689453125,9.775824546813965,1.0319008827209473,-0.5171475410461426
1760285888806066700,5.519066650390625,9.794978141784668,1.039083480834961,-0.5171475410461426
1760285888816066800,5.52906689453125,9.790189743041992,1.0582371950149536,-0.5291185975074768
1760285888826066700,5.539066650390625,9.778219223022461,1.0773907899856567,-0.5386953949928284
1760285888836066800,5.54906689453125,9.763854026794434,1.094150185585022,-0.5530605912208557
1760285888846066700,5.559066650390625,9.763854026794434,1.1061211824417114,-0.5650315880775452
1760285888856066800,5.56906689453125,9.787796020507812,1.1085153818130493,-0.5674257874488831
1760285888866066700,5.579066650390625,9.833285331726074,1.1085153818130493,-0.569819986820221
1760285888876066800,5.58906689453125,9.876380920410156,1.1037269830703735,-0.5722141861915588
1760285888886066700,5.599066650390625,9.907505989074707,1.0965443849563599,-0.5650315880775452
1760285888896066800,5.60906689453125,9.65372085571289,1.0438719987869263,-0.5746083855628967
1760285888906066700,5.619066650390625,9.627384185791016,1.1085153818130493,-0.5219359993934631
1760285888916066800,5.62906689453125,9.660902976989746,1.1516109704971313,-0.5027823448181152
1760285888926066700,5.639066650390625,9.65372085571289,1.1276689767837524,-0.5674257874488831
1760285888936066800,5.64906689453125,9.646537780761719,1.0965443849563599,-0.6009446382522583
1760285888946066700,5.659066650390625,9.644144058227539,1.0893617868423462,-0.5770025849342346
1760285888956066800,5.66906689453125,9.646537780761719,1.0821791887283325,-0.5578489899635315
1760285888966066700,5.679066650390625,9.651326179504395,1.072602391242981,-0.569819986820221
1760285888976066800,5.68906689453125,9.660902976989746,1.070208191871643,-0.608127236366272
1760285888986066700,5.699066650390625,9.67766284942627,1.0773907899856567,-0.6536170840263367
1760285888996066800,5.70906689453125,9.692028045654297,1.0869675874710083,-0.6967126727104187
1760285889006066700,5.719066650390625,9.708786964416504,1.091755986213684,-0.7182605266571045
1760285889016066800,5.72906689453125,9.71357536315918,1.0893617868423462,-0.7206547260284424
1760285889026066700,5.739066650390625,9.706393241882324,1.0773907899856567,-0.7110779285430908
1760285889036066800,5.74906689453125,9.696816444396973,1.0630255937576294,-0.689530074596405
1760285889046066700,5.759066650390625,9.692028045654297,1.0534487962722778,-0.6631938815116882
1760285889056066800,5.76906689453125,9.692028045654297,1.0414776802062988,-0.6536170840263367
1760285889066066700,5.779066650390625,9.696816444396973,1.0342950820922852,-0.6560112833976746
1760285889076066800,5.78906689453125,9.708786964416504,1.0342950820922852,-0.6607996821403503
1760285889086066700,5.799066650390625,9.723152160644531,1.036689281463623,-0.6584054827690125
1760285889096066800,5.80906689453125,9.735123634338379,1.0223240852355957,-0.6416460275650024
1760285889106066700,5.819066650390625,9.74709415435791,1.0031704902648926,-0.6177040338516235
1760285889116066800,5.82906689453125,9.759065628051758,0.9888052940368652,-0.586579442024231
1760285889126066700,5.839066650390625,9.771036148071289,0.9696516990661621,-0.5578489899635315
1760285889136066800,5.84906689453125,9.778219223022461,0.9624691009521484,-0.5363011956214905
1760285889146066700,5.859066650390625,9.78061294555664,0.9696516990661621,-0.5363011956214905
1760285889156066800,5.86906689453125,9.794978141784668,0.9744400978088379,-0.5386953949928284
1760285889166066700,5.879066650390625,9.833285331726074,0.9672574996948242,-0.5410895943641663
1760285889176066800,5.88906689453125,9.816526412963867,0.9888052940368652,-0.5147533416748047
1760285889186066700,5.899066650390625,9.749488830566406,1.0199298858642578,-0.4812345504760742
1760285889196066800,5.90906689453125,9.668086051940918,1.0414776802062988,-0.48602294921875
1760285889206066700,5.919066650390625,9.610625267028809,1.05105459690094,-0.49320554733276367
1760285889216066800,5.92906689453125,9.584288597106934,1.0606313943862915,-0.49559974670410156
1760285889226066700,5.939066650390625,9.579500198364258,1.0749965906143188,-0.5027823448181152
1760285889236066800,5.94906689453125,9.596260070800781,1.0845733880996704,-0.524330198764801
1760285889246066700,5.959066650390625,9.627384185791016,1.0989385843276978,-0.5506663918495178
1760285889256066800,5.96906689453125,9.660902976989746,1.1109095811843872,-0.5722141861915588
1760285889266066700,5.979066650390625,9.684844970703125,1.115697979927063,-0.586579442024231
1760285889276066800,5.98906689453125,9.696816444396973,1.115697979927063,-0.6057330369949341
1760285889286066700,5.999066650390625,9.692028045654297,1.115697979927063,-0.6153098344802856
1760285889296066800,6.00906689453125,9.684844970703125,1.113303780555725,-0.6177040338516235
1760285889306066700,6.019066650390625,9.67766284942627,1.113303780555725,-0.6200982332229614
1760285889316066800,6.02906689453125,9.682451248168945,1.113303780555725,-0.6200982332229614
1760285889326066700,6.039066650390625,9.696816444396973,1.113303780555725,-0.6200982332229614
1760285889336066800,6.04906689453125,9.708786964416504,1.115697979927063,-0.6248866319656372
1760285889346066700,6.059066650390625,9.715970039367676,1.1204863786697388,-0.6344634294509888
1760285889356066800,6.06906689453125,9.720758438110352,1.1276689767837524,-0.6488286852836609
1760285889366066700,6.079066650390625,9.40711784362793,1.05105459690094,-0.6607996821403503
1760285889376066800,6.08906689453125,9.40951156616211,1.0893617868423462,-0.586579442024231
1760285889386066700,6.099066650390625,9.5531644821167,1.115697979927063,-0.5291185975074768
1760285889396066800,6.10906689453125,9.605836868286133,1.0989385843276978,-0.5746083855628967
1760285889406066700,6.119066650390625,9.624990463256836,1.0558429956436157,-0.6057330369949341
1760285889416066800,6.12906689453125,9.629778861999512,1.0271124839782715,-0.5793967843055725
1760285889426066700,6.139066650390625,9.627384185791016,1.0199298858642578,-0.5386953949928284
1760285889436066800,6.14906689453125,9.632172584533691,1.0247182846069336,-0.524330198764801
1760285889446066700,6.159066650390625,9.636960983276367,1.0319008827209473,-0.5410895943641663
1760285889456066800,6.16906689453125,9.646537780761719,1.0414776802062988,-0.5722141861915588
1760285889466066700,6.179066650390625,9.663297653198242,1.0558429956436157,-0.6033388376235962
1760285889476066800,6.18906689453125,9.68005657196045,1.0678139925003052,-0.6200982332229614
1760285889486066700,6.199066650390625,9.694421768188477,1.0797849893569946,-0.6344634294509888
1760285889496066800,6.20906689453125,9.692028045654297,1.094150185585022,-0.646434485912323
1760285889506066700,6.219066650390625,9.67766284942627,1.1013327836990356,-0.6560112833976746
1760285889516066800,6.22906689453125,9.663297653198242,1.0989385843276978,-0.6631938815116882
1760285889526066700,6.239066650390625,9.665691375732422,1.094150185585022,-0.6655880808830261
1760285889536066800,6.24906689453125,9.692028045654297,1.0869675874710083,-0.6584054827690125
1760285889546066700,6.259066650390625,9.720758438110352,1.0749965906143188,-0.6584054827690125
1760285889556066800,6.26906689453125,9.742305755615234,1.0630255937576294,-0.6631938815116882
1760285889566066700,6.279066650390625,9.756670951843262,1.0534487962722778,-0.6607996821403503
1760285889576066800,6.28906689453125,9.763854026794434,1.05105459690094,-0.6584054827690125
1760285889586066700,6.299066650390625,9.76864242553711,1.048660397529602,-0.6536170840263367
1760285889596066800,6.30906689453125,9.763854026794434,1.0414776802062988,-0.6368576288223267
1760285889606066700,6.319066650390625,9.74709415435791,1.0271124839782715,-0.6200982332229614
1760285889616066800,6.32906689453125,9.725546836853027,1.0127472877502441,-0.5985504388809204
1760285889626066700,6.339066650390625,9.711181640625,1.0007762908935547,-0.5770025849342346
1760285889636066800,6.34906689453125,9.708786964416504,0.9888052940368652,-0.5602431893348694
1760285889646066700,6.359066650390625,9.720758438110352,0.9840168952941895,-0.5434837937355042
1760285889656066800,6.36906689453125,9.735123634338379,0.9768342971801758,-0.5315127968788147
1760285889666067000,6.37906689453125,9.759065628051758,0.9648633003234863,-0.5171475410461426
1760285889676066800,6.38906689453125,9.943418502807617,0.9050082564353943,-0.38546648621559143
1760285889686066700,6.399066650390625,9.967360496520996,0.9433154463768005,-0.40222588181495667
1760285889696066800,6.40906689453125,9.897929191589355,0.9911994934082031,-0.5147533416748047
1760285889706066700,6.419066650390625,9.80455493927002,1.0342950820922852,-0.5817909836769104
1760285889716066800,6.42906689453125,9.775824546813965,1.0558429956436157,-0.6224924325942993
1760285889726066700,6.439066650390625,9.797372817993164,1.0342950820922852,-0.6248866319656372
1760285889736066800,6.44906689453125,9.823708534240723,0.9481038451194763,-0.5291185975074768
1760285889746066700,6.459066650390625,9.71357536315918,1.0079588890075684,-0.4189853072166443
1760285889756066800,6.46906689453125,9.5316162109375,1.0773907899856567,-0.47165772318840027
1760285889766066700,6.479066650390625,9.368810653686523,1.0845733880996704,-0.5674257874488831
1760285889776066800,6.48906689453125,9.40951156616211,1.0965443849563599,-0.5889736413955688
1760285889786066700,6.499066650390625,9.522039413452148,1.1300631761550903,-0.667982280254364
1760285889796066800,6.50906689453125,9.699210166931152,1.1324573755264282,-0.7445967197418213
1760285889806066700,6.519066650390625,9.847650527954102,1.1348515748977661,-0.7374141216278076
1760285889816066800,6.52906689453125,9.852438926696777,1.1324573755264282,-0.6847416758537292
1760285889826066700,6.539066650390625,9.761459350585938,1.0893617868423462,-0.646434485912323
1760285889836066800,6.54906689453125,9.644144058227539,1.0965443849563599,-0.6368576288223267
1760285889846066700,6.559066650390625,9.58907699584961,1.094150185585022,-0.5578489899635315
1760285889856066800,6.56906689453125,9.584288597106934,1.1109095811843872,-0.5674257874488831
1760285889866066700,6.579066650390625,9.601048469543457,1.161187767982483,-0.6560112833976746
1760285889876066800,6.58906689453125,9.629778861999512,1.1635819673538208,-0.7015010714530945
1760285889886067000,6.59906689453125,9.6896333694458,1.139639973640442,-0.6847416758537292
1760285889896066800,6.60906689453125,9.74709415435791,1.1300631761550903,-0.6057330369949341
1760285889906067000,6.61906689453125,9.715970039367676,1.0965443849563599,-0.5602431893348694
1760285889916066800,6.62906689453125,9.68005657196045,1.05105459690094,-0.569819986820221
1760285889926066700,6.639066650390625,9.696816444396973,1.0773907899856567,-0.5793967843055725
1760285889936066800,6.64906689453125,9.766247749328613,1.0630255937576294,-0.5770025849342346
1760285889946066700,6.659066650390625,9.787796020507812,1.0797849893569946,-0.5578489899635315
1760285889956066800,6.66906689453125,9.763854026794434,1.0582371950149536,-0.569819986820221
1760285889966066700,6.679066650390625,9.727940559387207,1.036689281463623,-0.5961562395095825
1760285889976066800,6.68906689453125,9.708786964416504,1.0438719987869263,-0.5889736413955688
1760285889986066700,6.699066650390625,9.665691375732422,1.0534487962722778,-0.6057330369949341
1760285889996066800,6.70906689453125,9.634567260742188,1.0295066833496094,-0.5602431893348694
1760285890006066700,6.719066650390625,9.627384185791016,1.039083480834961,-0.5386953949928284
1760285890016066800,6.72906689453125,9.603442192077637,1.039083480834961,-0.5410895943641663
1760285890026066700,6.739066650390625,9.579500198364258,1.070208191871643,-0.6488286852836609
1760285890036066800,6.74906689453125,9.572318077087402,1.094150185585022,-0.7374141216278076
1760285890046066700,6.759066650390625,9.67766284942627,1.1276689767837524,-0.6727706789970398
1760285890056066800,6.76906689453125,9.818920135498047,1.05105459690094,-0.646434485912323
1760285890066066700,6.779066650390625,9.909899711608887,0.9744400978088379,-0.6440402865409851
1760285890076066800,6.78906689453125,9.933841705322266,0.9600749015808105,-0.5626373887062073
1760285890086066700,6.799066650390625,9.905111312866211,0.9409212470054626,-0.5027823448181152
1760285890096066800,6.80906689453125,9.742305755615234,0.9816226959228516,-0.43095630407333374
1760285890106066700,6.819066650390625,9.608230590820312,0.9864110946655273,-0.4596867263317108
1760285890116066800,6.82906689453125,9.58907699584961,1.0031704902648926,-0.5003881454467773
1760285890126066700,6.839066650390625,9.742305755615234,1.0055646896362305,-0.5219359993934631
1760285890136066800,6.84906689453125,9.905111312866211,1.0007762908935547,-0.5123591423034668
1760285890146066700,6.859066650390625,9.85962200164795,1.015141487121582,-0.6033388376235962
1760285890156066800,6.86906689453125,9.74470043182373,1.0223240852355957,-0.6584054827690125
1760285890166066700,6.879066650390625,9.581894874572754,1.0558429956436157,-0.6248866319656372
1760285890176066800,6.88906689453125,9.541193008422852,1.0462661981582642,-0.4381389021873474
1760285890186066700,6.899066650390625,9.505280494689941,1.048660397529602,-0.3663128614425659
1760285890196066800,6.90906689453125,9.416694641113281,1.0558429956436157,-0.395043283700943
1760285890206066700,6.919066650390625,9.416694641113281,1.0893617868423462,-0.395043283700943
1760285890216066800,6.92906689453125,9.605836868286133,1.1228805780410767,-0.47644615173339844
1760285890226066700,6.939066650390625,10.058341026306152,1.1109095811843872,-0.5985504388809204
1760285890236066800,6.94906689453125,10.185233116149902,1.1276689767837524,-0.5530605912208557
1760285890246066700,6.959066650390625,10.103830337524414,1.235408067703247,-0.5051765441894531
1760285890256066800,6.96906689453125,9.919476509094238,1.216254472732544,-0.5291185975074768
1760285890266066700,6.979066650390625,9.828496932983398,1.2066776752471924,-0.5291185975074768
1760285890276066800,6.98906689453125,9.708786964416504,1.2090718746185303,-0.5434837937355042
1760285890286066700,6.999066650390625,9.567529678344727,1.2282254695892334,-0.5746083855628967
1760285890296066800,7.00906689453125,9.404723167419434,1.259350061416626,-0.6153098344802856
1760285890306066700,7.019066650390625,9.25867748260498,1.3024457693099976,-0.6584054827690125
1760285890316066800,7.02906689453125,9.174880027770996,1.338358759880066,-0.7086837291717529
1760285890326066700,7.039066650390625,9.206005096435547,1.3455413579940796,-0.751779317855835
1760285890336066800,7.04906689453125,9.347262382507324,1.2761094570159912,-0.7374141216278076
1760285890346066700,7.059066650390625,9.548376083374023,1.2114660739898682,-0.6847416758537292
1760285890356066800,7.06906689453125,9.735123634338379,1.192312479019165,-0.6344634294509888
1760285890366066700,7.079066650390625,9.87159252166748,1.194706678390503,-0.6368576288223267
1760285890376066800,7.08906689453125,9.936236381530762,1.2042834758758545,-0.6799532771110535
1760285890386066700,7.099066650390625,9.931447982788086,1.2114660739898682,-0.730231523513794
1760285890406066700,7.119066650390625,9.763854026794434,1.194706678390503,-0.7469909191131592
1760285890426066700,7.139066650390625,9.629778861999512,1.1324573755264282,-0.689530074596405
1760285890446066700,7.159066650390625,9.627384185791016,1.070208191871643,-0.646434485912323
1760285890456066800,7.16906689453125,9.663297653198242,1.048660397529602,-0.6272808313369751
1760285890466066700,7.179066650390625,9.703998565673828,1.0319008827209473,-0.6129156351089478
1760285890476066800,7.18906689453125,9.742305755615234,1.015141487121582,-0.5961562395095825
1760285890486066700,7.199066650390625,9.787796020507812,0.9983820915222168,-0.569819986820221
1760285890496066800,7.20906689453125,9.83568000793457,0.9792284965515137,-0.5291185975074768
1760285890506066700,7.219066650390625,9.873987197875977,0.9552865028381348,-0.4908113479614258
1760285890516066800,7.22906689453125,9.878775596618652,0.9361328482627869,-0.4692635238170624
1760285890526066700,7.239066650390625,9.83568000793457,0.9265560507774353,-0.47405192255973816
1760285890536066800,7.24906689453125,9.783007621765137,0.9409212470054626,-0.47884035110473633
1760285890546066700,7.259066650390625,9.735123634338379,0.9672574996948242,-0.48602294921875
1760285890556066800,7.26906689453125,9.708786964416504,0.9888052940368652,-0.49320554733276367
1760285890566066700,7.279066650390625,9.701604843139648,1.0031704902648926,-0.5123591423034668
1760285890576066800,7.28906689453125,9.715970039367676,1.0079588890075684,-0.5339069962501526
1760285890586066700,7.299066650390625,9.732728958129883,1.0127472877502441,-0.5482721924781799
1760285890596066800,7.30906689453125,9.737517356872559,1.0223240852355957,-0.5674257874488831
1760285890606066700,7.319066650390625,9.725546836853027,1.0414776802062988,-0.5841852426528931
1760285890616066800,7.32906689453125,9.706393241882324,1.0558429956436157,-0.5937620401382446
1760285890626066700,7.339066650390625,9.67766284942627,1.0606313943862915,-0.5985504388809204
1760285890636066800,7.34906689453125,9.644144058227539,1.0606313943862915,-0.5937620401382446
1760285890646066700,7.359066650390625,9.603442192077637,1.0558429956436157,-0.5746083855628967
1760285890656066800,7.36906689453125,9.567529678344727,1.0462661981582642,-0.5434837937355042
1760285890666066700,7.379066650390625,9.555558204650879,1.0342950820922852,-0.5171475410461426
1760285890676066800,7.38906689453125,9.569923400878906,1.0247182846069336,-0.507570743560791
1760285890686066700,7.399066650390625,9.605836868286133,1.0247182846069336,-0.5099649429321289
1760285890696066800,7.40906689453125,9.644144058227539,1.0247182846069336,-0.5147533416748047
1760285890706066700,7.419066650390625,9.672874450683594,1.0295066833496094,-0.524330198764801
1760285890716066800,7.42906689453125,9.687239646911621,1.0271124839782715,-0.524330198764801
1760285890726066700,7.439066650390625,9.684844970703125,1.0223240852355957,-0.5434837937355042
1760285890736066800,7.44906689453125,9.682451248168945,1.0342950820922852,-0.569819986820221
1760285890746066700,7.459066650390625,9.687239646911621,1.0558429956436157,-0.5961562395095825
1760285890756066800,7.46906689453125,9.694421768188477,1.072602391242981,-0.6129156351089478
1760285890766066700,7.479066650390625,9.699210166931152,1.0797849893569946,-0.6200982332229614
1760285890776066800,7.48906689453125,9.711181640625,1.0797849893569946,-0.6200982332229614
1760285890786066700,7.499066650390625,9.725546836853027,1.0773907899856567,-0.6057330369949341
1760285890796066800,7.50906689453125,9.749488830566406,1.070208191871643,-0.5937620401382446
1760285890806066700,7.519066650390625,9.775824546813965,1.0630255937576294,-0.5793967843055725
1760285890816066800,7.52906689453125,9.799766540527344,1.05105459690094,-0.5554547905921936
1760285890826066700,7.539066650390625,9.818920135498047,1.0414776802062988,-0.5363011956214905
1760285890836066800,7.54906689453125,9.83568000793457,1.0295066833496094,-0.524330198764801
1760285890846066700,7.559066650390625,9.840468406677246,1.0271124839782715,-0.5147533416748047
1760285890856066800,7.56906689453125,9.823708534240723,1.0223240852355957,-0.5147533416748047
1760285890866066700,7.579066650390625,9.792584419250488,1.0199298858642578,-0.5219359993934631
1760285890876066800,7.58906689453125,9.759065628051758,1.0247182846069336,-0.5291185975074768
1760285890886066700,7.599066650390625,9.732728958129883,1.0295066833496094,-0.5267243981361389
1760285890896066800,7.60906689453125,9.723152160644531,1.0295066833496094,-0.524330198764801
1760285890906066700,7.619066650390625,9.725546836853027,1.0295066833496094,-0.5291185975074768
1760285890926066700,7.639066650390625,9.720758438110352,1.0295066833496094,-0.545877993106842
1760285890936066800,7.64906689453125,9.720758438110352,1.0295066833496094,-0.5602431893348694
1760285890946066700,7.659066650390625,9.727940559387207,1.0271124839782715,-0.5626373887062073
1760285890956066800,7.66906689453125,9.730335235595703,1.01753568649292,-0.5578489899635315
1760285890966066700,7.679066650390625,9.737517356872559,1.0079588890075684,-0.5506663918495178
1760285890976066800,7.68906689453125,9.754277229309082,1.0055646896362305,-0.545877993106842
1760285890986066700,7.699066650390625,9.778219223022461,1.0055646896362305,-0.5386953949928284
1760285890996066800,7.70906689453125,9.794978141784668,1.0103530883789062,-0.545877993106842
1760285891006066700,7.719066650390625,9.797372817993164,1.015141487121582,-0.5578489899635315
1760285891016066800,7.72906689453125,9.783007621765137,1.0247182846069336,-0.5793967843055725
1760285891026066700,7.739066650390625,9.749488830566406,1.039083480834961,-0.5937620401382446
1760285891036066800,7.74906689453125,9.708786964416504,1.0534487962722778,-0.6033388376235962
1760285891046066700,7.759066650390625,9.651326179504395,1.0654197931289673,-0.6009446382522583
1760285891056066800,7.76906689453125,9.555558204650879,1.072602391242981,-0.6057330369949341
1760285891066066700,7.779066650390625,9.466972351074219,1.094150185585022,-0.6009446382522583
1760285891076066800,7.78906689453125,9.40711784362793,1.1109095811843872,-0.5961562395095825
1760285891086066700,7.799066650390625,9.390357971191406,1.115697979927063,-0.6009446382522583
1760285891096066800,7.80906689453125,9.433453559875488,1.1061211824417114,-0.5985504388809204
1760285891106066700,7.819066650390625,9.519645690917969,1.0821791887283325,-0.5841852426528931
1760285891116066800,7.82906689453125,9.629778861999512,1.0414776802062988,-0.5746083855628967
1760285891126066700,7.839066650390625,9.737517356872559,1.0103530883789062,-0.5937620401382446
1760285891136066800,7.84906689453125,9.852438926696777,0.9840168952941895,-0.6200982332229614
1760285891146066700,7.859066650390625,9.92905330657959,0.9983820915222168,-0.6009446382522583
1760285891156066800,7.86906689453125,9.96017837524414,1.01753568649292,-0.5650315880775452
1760285891166066700,7.879066650390625,9.950601577758789,1.015141487121582,-0.5434837937355042
1760285891176066800,7.88906689453125,9.933841705322266,1.0079588890075684,-0.5315127968788147
1760285891186066700,7.899066650390625,9.917082786560059,1.0079588890075684,-0.5219359993934631
1760285891196066800,7.90906689453125,9.897929191589355,1.0271124839782715,-0.5219359993934631
1760285891206066700,7.919066650390625,9.883563995361328,1.0462661981582642,-0.5339069962501526
1760285891216066800,7.92906689453125,9.864410400390625,1.0606313943862915,-0.5410895943641663
1760285891226066700,7.939066650390625,9.847650527954102,1.072602391242981,-0.5506663918495178
1760285891236066800,7.94906689453125,9.830891609191895,1.0821791887283325,-0.5578489899635315
1760285891246066700,7.959066650390625,9.814131736755371,1.0845733880996704,-0.5626373887062073
1760285891256066800,7.96906689453125,9.799766540527344,1.0869675874710083,-0.5626373887062073
1760285891266066700,7.979066650390625,9.773430824279785,1.0869675874710083,-0.5578489899635315
1760285891276066800,7.98906689453125,9.739912033081055,1.0821791887283325,-0.5554547905921936
1760285891286066700,7.999066650390625,9.703998565673828,1.0749965906143188,-0.5506663918495178
1760285891296066800,8.00906689453125,9.67766284942627,1.0630255937576294,-0.5386953949928284
1760285891306066700,8.019066650390625,9.65611457824707,1.0534487962722778,-0.5315127968788147
1760285891316066800,8.02906689453125,9.644144058227539,1.039083480834961,-0.5291185975074768
1760285891326066700,8.039066650390625,9.644144058227539,1.0295066833496094,-0.5339069962501526
1760285891336066800,8.04906689453125,9.65611457824707,1.0247182846069336,-0.5386953949928284
1760285891346066700,8.059066650390625,9.67766284942627,1.0127472877502441,-0.5434837937355042
1760285891356066800,8.06906689453125,9.692028045654297,0.9983820915222168,-0.545877993106842
1760285891366066700,8.079066650390626,9.701604843139648,0.9840168952941895,-0.5530605912208557
1760285891376066800,8.08906689453125,9.699210166931152,0.9744400978088379,-0.545877993106842
1760285891386066700,8.099066650390625,9.6896333694458,0.9696516990661621,-0.5315127968788147
1760285891396066800,8.10906689453125,9.682451248168945,0.9696516990661621,-0.5195417404174805
1760285891406066700,8.119066650390625,9.67766284942627,0.9696516990661621,-0.5219359993934631
1760285891416066800,8.12906689453125,9.6896333694458,0.9792284965515137,-0.5363011956214905
1760285891426066700,8.139066650390625,9.718363761901855,0.9888052940368652,-0.5482721924781799
1760285891446066700,8.159066650390624,9.809343338012695,0.9888052940368652,-0.5554547905921936
1760285891456066800,8.16906689453125,9.854833602905273,0.9816226959228516,-0.5434837937355042
1760285891466066700,8.179066650390626,9.890746116638184,0.9672574996948242,-0.5267243981361389
1760285891476066800,8.18906689453125,9.914688110351562,0.9552865028381348,-0.5123591423034668
1760285891486066700,8.199066650390625,9.917082786560059,0.9433154463768005,-0.5171475410461426
1760285891496066800,8.20906689453125,9.907505989074707,0.950498104095459,-0.5386953949928284
1760285891506066700,8.219066650390625,9.878775596618652,0.9792284965515137,-0.5650315880775452
1760285891516066800,8.22906689453125,9.850045204162598,1.0079588890075684,-0.5889736413955688
1760285891526066700,8.239066650390624,9.828496932983398,1.0295066833496094,-0.5985504388809204
1760285891536066800,8.24906689453125,9.818920135498047,1.0414776802062988,-0.5961562395095825
1760285891546066700,8.259066650390626,9.823708534240723,1.048660397529602,-0.5841852426528931
1760285891556066800,8.26906689453125,9.818920135498047,1.0462661981582642,-0.5746083855628967
1760285891566066700,8.279066650390625,9.809343338012695,1.0558429956436157,-0.569819986820221
1760285891576066800,8.28906689453125,9.792584419250488,1.0654197931289673,-0.5770025849342346
1760285891596066800,8.30906689453125,9.742305755615234,1.1013327836990356,-0.586579442024231
1760285891606066700,8.319066650390624,9.727940559387207,1.1085153818130493,-0.5793967843055725
1760285891616066800,8.32906689453125,9.727940559387207,1.0989385843276978,-0.569819986820221
1760285891626066700,8.339066650390626,9.74709415435791,1.0797849893569946,-0.5482721924781799
1760285891636066800,8.34906689453125,9.778219223022461,1.0582371950149536,-0.5339069962501526
1760285891646066700,8.359066650390625,9.821314811706543,1.0414776802062988,-0.5267243981361389
1760285891656066800,8.36906689453125,9.852438926696777,1.0319008827209473,-0.524330198764801
1760285891666066700,8.379066650390625,9.8691987991333,1.0247182846069336,-0.524330198764801
1760285891676066800,8.38906689453125,9.87159252166748,1.0247182846069336,-0.5339069962501526
1760285891686066700,8.399066650390624,9.85962200164795,1.0271124839782715,-0.5410895943641663
1760285891696066800,8.40906689453125,9.833285331726074,1.0342950820922852,-0.5506663918495178
1760285891706066700,8.419066650390626,9.806949615478516,1.039083480834961,-0.5602431893348694
1760285891716066800,8.42906689453125,9.778219223022461,1.048660397529602,-0.569819986820221
1760285891726066700,8.439066650390625,9.754277229309082,1.0534487962722778,-0.5770025849342346
1760285891736066800,8.44906689453125,9.739912033081055,1.0630255937576294,-0.586579442024231
1760285891746066700,8.459066650390625,9.739912033081055,1.0630255937576294,-0.6009446382522583
1760285891756066800,8.46906689453125,9.74470043182373,1.072602391242981,-0.6177040338516235
1760285891766066700,8.479066650390624,9.756670951843262,1.0845733880996704,-0.6272808313369751
1760285891776066800,8.48906689453125,9.771036148071289,1.091755986213684,-0.6368576288223267
1760285891786066700,8.499066650390626,9.785401344299316,1.0989385843276978,-0.6416460275650024
1760285891796066800,8.50906689453125,9.80216121673584,1.1085153818130493,-0.6560112833976746
1760285891806066700,8.519066650390625,9.806949615478516,1.1204863786697388,-0.6823474764823914
1760285891816066800,8.52906689453125,9.80455493927002,1.139639973640442,-0.7086837291717529
1760285891826066700,8.539066650390625,9.799766540527344,1.1563993692398071,-0.7206547260284424
1760285891836066800,8.54906689453125,9.785401344299316,1.170764684677124,-0.706289529800415
1760285891846066700,8.559066650390625,9.756670951843262,1.170764684677124,-0.6799532771110535
1760285891856066800,8.56906689453125,9.71357536315918,1.1659762859344482,-0.6392518281936646
1760285891866066700,8.579066650390626,9.663297653198242,1.161187767982483,-0.6033388376235962
1760285891876066800,8.58906689453125,9.629778861999512,1.158793568611145,-0.5746083855628967
1760285891886066700,8.599066650390625,9.627384185791016,1.1516109704971313,-0.569819986820221
1760285891896066800,8.60906689453125,9.665691375732422,1.1420341730117798,-0.5722141861915588
1760285891906066700,8.619066650390625,9.742305755615234,1.1324573755264282,-0.569819986820221
1760285891916066800,8.62906689453125,9.823708534240723,1.1204863786697388,-0.5793967843055725
1760285891926066700,8.639066650390625,9.890746116638184,1.1061211824417114,-0.5913678407669067
1760285891936066800,8.64906689453125,9.92665958404541,1.0989385843276978,-0.6009446382522583
1760285891946066700,8.659066650390624,9.933841705322266,1.0965443849563599,-0.6033388376235962
1760285891956066800,8.66906689453125,9.919476509094238,1.0893617868423462,-0.6009446382522583
1760285891966066700,8.679066650390626,9.905111312866211,1.0845733880996704,-0.586579442024231
1760285891976066800,8.68906689453125,9.876380920410156,1.0773907899856567,-0.569819986820221
1760285891986066700,8.699066650390625,9.842862129211426,1.0797849893569946,-0.5482721924781799
1760285891996066800,8.70906689453125,9.814131736755371,1.0821791887283325,-0.5363011956214905
1760285892006066700,8.719066650390625,9.790189743041992,1.0893617868423462,-0.5219359993934631
1760285892016066800,8.72906689453125,9.771036148071289,1.0989385843276978,-0.5147533416748047
1760285892026066700,8.739066650390624,9.754277229309082,1.113303780555725,-0.5195417404174805
1760285892036066800,8.74906689453125,9.742305755615234,1.1276689767837524,-0.5339069962501526
1760285892046066700,8.759066650390626,9.751882553100586,1.1492167711257935,-0.5482721924781799
1760285892056066800,8.76906689453125,9.773430824279785,1.170764684677124,-0.5530605912208557
1760285892066066700,8.779066650390625,9.80216121673584,1.1851298809051514,-0.5482721924781799
1760285892076066800,8.78906689453125,9.83807373046875,1.1994950771331787,-0.524330198764801
1760285892086066700,8.799066650390625,9.313743591308594,1.192312479019165,-0.5937620401382446
1760285892096066800,8.80906689453125,9.165303230285645,1.2665326595306396,-0.4692635238170624
1760285892106066700,8.819066650390624,9.014469146728516,1.3407529592514038,-0.44771572947502136
1760285892116066800,8.82906689453125,8.940248489379883,1.2497732639312744,-0.4118026793003082
1760285892126066700,8.839066650390626,9.055170059204102,1.1228805780410767,-0.272938996553421
1760285892136066800,8.84906689453125,9.201216697692871,1.01753568649292,-0.15083470940589905
1760285892146066700,8.859066650390625,9.340080261230469,0.9289502501487732,-0.12689268589019775
1760285892156066800,8.86906689453125,9.462183952331543,0.8619126081466675,-0.16998831927776337
1760285892166066700,8.879066650390625,9.603442192077637,0.8188169598579407,-0.26096799969673157
1760285892176066800,8.88906689453125,9.78061294555664,0.7996633648872375,-0.37828385829925537
1760285892186066700,8.899066650390624,9.96257209777832,0.7996633648872375,-0.49559974670410156
1760285892196066800,8.90906689453125,10.132560729980469,0.8164227604866028,-0.6224924325942993
1760285892206066700,8.919066650390626,10.242693901062012,0.8379706144332886,-0.7326257228851318
1760285892216066800,8.92906689453125,10.285789489746094,0.8762778043746948,-0.8092401623725891
1760285892226066700,8.939066650390625,10.269030570983887,0.912190854549408,-0.8403648138046265
1760285892236066800,8.94906689453125,10.225934982299805,0.9361328482627869,-0.8475474119186401
1760285892246066700,8.959066650390625,10.144532203674316,0.9816226959228516,-0.8762778043746948
1760285892256066800,8.96906689453125,10.032004356384277,1.05105459690094,-0.912190854549408
1760285892266066700,8.979066650390624,9.933841705322266,1.1204863786697388,-0.9457096457481384
1760285892276066800,8.98906689453125,9.85962200164795,1.1851298809051514,-0.9696516990661621
1760285892286066700,8.999066650390626,9.821314811706543,1.2234370708465576,-0.9816226959228516
1760285892296066800,9.00906689453125,9.830891609191895,1.2473790645599365,-1.0079588890075684
1760285892306066700,9.019066650390625,9.862015724182129,1.256955862045288,-1.039083480834961
1760285892316066800,9.02906689453125,9.89314079284668,1.2641384601593018,-1.0749965906143188
1760285892326066700,9.039066650390625,9.917082786560059,1.2617442607879639,-1.091755986213684
1760285892336066800,9.04906689453125,9.921871185302734,1.2473790645599365,-1.0749965906143188
1760285892346066700,9.059066650390625,9.902717590332031,1.2210428714752197,-1.0438719987869263
1760285892356066800,9.06906689453125,9.854833602905273,1.1827356815338135,-1.0007762908935547
1760285892366066700,9.079066650390626,9.792584419250488,1.1420341730117798,-0.9481038451194763
1760285892376066800,9.08906689453125,9.74470043182373,1.113303780555725,-0.8882488012313843
1760285892386066700,9.099066650390625,9.711181640625,1.0869675874710083,-0.8355764150619507
1760285892396066800,9.10906689453125,9.696816444396973,1.0582371950149536,-0.7948749661445618
1760285892406066700,9.119066650390625,9.687239646911621,1.0247182846069336,-0.7541735172271729
1760285892416066800,9.12906689453125,9.67766284942627,0.9959878921508789,-0.7254431247711182
1760285892426066700,9.139066650390625,9.65611457824707,0.9888052940368652,-0.7206547260284424
1760285892436066800,9.14906689453125,9.65611457824707,1.0055646896362305,-0.7158663272857666
1760285892446066700,9.159066650390624,9.665691375732422,1.0199298858642578,-0.7134721279144287
1760285892456066800,9.16906689453125,9.6896333694458,1.0199298858642578,-0.7206547260284424
1760285892466066700,9.179066650390626,9.725546836853027,1.015141487121582,-0.7158663272857666
1760285892476066800,9.18906689453125,9.749488830566406,1.0031704902648926,-0.7015010714530945
1760285892486066700,9.199066650390625,9.756670951843262,0.9888052940368652,-0.6847416758537292
1760285892496066800,9.20906689453125,9.74709415435791,0.9696516990661621,-0.6584054827690125
1760285892506066700,9.219066650390625,9.715970039367676,0.9696516990661621,-0.6416460275650024
1760285892516066800,9.22906689453125,9.684844970703125,0.9744400978088379,-0.6320692300796509
1760285892526066700,9.239066650390624,9.65611457824707,0.9864110946655273,-0.6248866319656372
1760285892536066800,9.24906689453125,9.641749382019043,1.0079588890075684,-0.6272808313369751
1760285892546066700,9.259066650390626,9.624990463256836,1.0295066833496094,-0.6440402865409851
1760285892556066800,9.26906689453125,9.617807388305664,1.0534487962722778,-0.6631938815116882
1760285892566066700,9.279066650390625,9.62020206451416,1.072602391242981,-0.6703764796257019
1760285892576066800,9.28906689453125,9.636960983276367,1.0869675874710083,-0.6847416758537292
1760285892586066700,9.299066650390625,9.68005657196045,1.0989385843276978,-0.6991068720817566
1760285892596066800,9.30906689453125,9.739912033081055,1.113303780555725,-0.689530074596405
1760285892606066700,9.319066650390624,9.794978141784668,1.1252747774124146,-0.6751648783683777
1760285892616066800,9.32906689453125,9.842862129211426,1.1348515748977661,-0.667982280254364
1760285892626066700,9.339066650390626,9.866804122924805,1.1492167711257935,-0.6727706789970398
1760285892636066800,9.34906689453125,9.873987197875977,1.1803414821624756,-0.6847416758537292
1760285892646066700,9.359066650390625,9.87159252166748,1.2234370708465576,-0.7038952708244324
1760285892656066800,9.36906689453125,9.862015724182129,1.2521674633026123,-0.7086837291717529
1760285892666066700,9.379066650390625,9.83807373046875,1.2617442607879639,-0.6943184733390808
1760285892676066800,9.38906689453125,9.814131736755371,1.256955862045288,-0.667982280254364
1760285892686066700,9.399066650390624,9.809343338012695,1.2521674633026123,-0.646434485912323
1760285892696066800,9.40906689453125,9.816526412963867,1.2521674633026123,-0.6177040338516235
1760285892706066700,9.419066650390626,9.818920135498047,1.2449848651885986,-0.5841852426528931
1760285892716066800,9.42906689453125,9.80216121673584,1.2306196689605713,-0.5386953949928284
1760285892726066700,9.439066650390625,9.751882553100586,1.2210428714752197,-0.49799394607543945
1760285892736066800,9.44906689453125,9.68005657196045,1.2066776752471924,-0.43335050344467163
1760285892746066700,9.459066650390625,9.603442192077637,1.2018892765045166,-0.3926490843296051
1760285892756066800,9.46906689453125,9.548376083374023,1.1971008777618408,-0.3711012601852417
1760285892766066700,9.479066650390624,9.502885818481445,1.192312479019165,-0.3663128614425659
1760285892776066800,9.48906689453125,9.459790229797363,1.1851298809051514,-0.35673606395721436
1760285892786066700,9.499066650390626,9.426271438598633,1.173158884048462,-0.3663128614425659
1760285892796066800,9.50906689453125,9.431059837341309,1.1659762859344482,-0.40222588181495667
1760285892806066700,9.519066650390625,9.455001831054688,1.1635819673538208,-0.4381389021873474
1760285892816066800,9.52906689453125,9.488520622253418,1.1492167711257935,-0.45250412821769714
1760285892826066700,9.539066650390625,9.524434089660645,1.1228805780410767,-0.4572925269603729
1760285892836066800,9.54906689453125,9.581894874572754,1.0965443849563599,-0.4644751250743866
1760285892846066700,9.559066650390625,9.646537780761719,1.0749965906143188,-0.4692635238170624
1760285892856066800,9.56906689453125,9.699210166931152,1.0654197931289673,-0.48602294921875
1760285892866066700,9.579066650390626,9.749488830566406,1.0462661981582642,-0.5099649429321289
1760285892876066800,9.58906689453125,9.790189743041992,1.036689281463623,-0.5410895943641663
1760285892886066700,9.599066650390625,9.823708534240723,1.0462661981582642,-0.5602431893348694
1760285892896066800,9.60906689453125,9.847650527954102,1.0534487962722778,-0.5746083855628967
1760285892906066700,9.619066650390625,9.850045204162598,1.0630255937576294,-0.5961562395095825
1760285892916066800,9.62906689453125,9.833285331726074,1.0749965906143188,-0.608127236366272
1760285892926066700,9.639066650390625,9.806949615478516,1.094150185585022,-0.6009446382522583
1760285892936066800,9.64906689453125,9.785401344299316,1.1037269830703735,-0.5817909836769104
1760285892946066700,9.659066650390624,9.775824546813965,1.113303780555725,-0.5530605912208557
1760285892956066800,9.66906689453125,9.761459350585938,1.1252747774124146,-0.5482721924781799
1760285892966066700,9.679066650390626,9.742305755615234,1.1492167711257935,-0.5530605912208557
1760285892976066800,9.68906689453125,9.730335235595703,1.170764684677124,-0.569819986820221
1760285892986066700,9.699066650390625,9.723152160644531,1.1851298809051514,-0.5793967843055725
1760285892996066800,9.70906689453125,9.723152160644531,1.1971008777618408,-0.5937620401382446
1760285893006066700,9.719066650390625,9.723152160644531,1.2114660739898682,-0.6033388376235962
1760285893016066800,9.72906689453125,9.735123634338379,1.2234370708465576,-0.6105214357376099
1760285893026066700,9.739066650390624,9.766247749328613,1.2258312702178955,-0.6033388376235962
1760285893036066800,9.74906689453125,9.80216121673584,1.2186486721038818,-0.586579442024231
1760285893046066700,9.759066650390626,9.840468406677246,1.192312479019165,-0.5722141861915588
1760285893056066800,9.76906689453125,9.830891609191895,1.2042834758758545,-0.5841852426528931
1760285893066066700,9.779066650390625,9.799766540527344,1.2210428714752197,-0.5793967843055725
1760285893076066800,9.78906689453125,9.759065628051758,1.2210428714752197,-0.5674257874488831
1760285893086066700,9.799066650390625,9.723152160644531,1.213860273361206,-0.5482721924781799
1760285893096066800,9.80906689453125,9.68005657196045,1.2090718746185303,-0.5315127968788147
1760285893106066700,9.819066650390624,9.641749382019043,1.213860273361206,-0.5171475410461426
1760285893116066800,9.82906689453125,9.627384185791016,1.2018892765045166,-0.5099649429321289
1760285893126066700,9.839066650390626,9.646537780761719,1.1875240802764893,-0.5051765441894531
1760285893136066800,9.84906689453125,9.684844970703125,1.170764684677124,-0.48602294921875
1760285893146066700,9.859066650390625,9.711181640625,1.1468225717544556,-0.4668693244457245
1760285893156066800,9.86906689453125,9.6896333694458,1.1420341730117798,-0.47165772318840027
1760285893166066700,9.879066650390625,9.644144058227539,1.1468225717544556,-0.4884171485900879
1760285893176066800,9.88906689453125,9.617807388305664,1.1492167711257935,-0.5003881454467773
1760285893186066700,9.899066650390624,9.627384185791016,1.139639973640442,-0.49320554733276367
1760285893196066800,9.90906689453125,9.648932456970215,1.1252747774124146,-0.47644615173339844
1760285893206066700,9.919066650390626,9.658509254455566,1.113303780555725,-0.4620809257030487
1760285893216066800,9.92906689453125,9.65372085571289,1.113303780555725,-0.45489832758903503
1760285893226066700,9.939066650390625,9.636960983276367,1.113303780555725,-0.45250412821769714
1760285893236066800,9.94906689453125,9.615413665771484,1.1252747774124146,-0.44532153010368347
1760285893246066700,9.959066650390625,9.603442192077637,1.1300631761550903,-0.45010992884635925
1760285893256066800,9.96906689453125,9.615413665771484,1.1348515748977661,-0.4644751250743866
1760285893266066700,9.979066650390624,9.658509254455566,1.139639973640442,-0.4644751250743866
1760285893276066800,9.98906689453125,9.699210166931152,1.139639973640442,-0.45250412821769714
1760285893286066700,9.999066650390626,9.715970039367676,1.139639973640442,-0.44771572947502136
1760285893296066800,10.00906689453125,9.708786964416504,1.137245774269104,-0.4405331015586853
1760285893306066700,10.019066650390625,9.701604843139648,1.139639973640442,-0.4357447028160095
1760285893316066800,10.02906689453125,9.694421768188477,1.139639973640442,-0.43335050344467163
1760285893326066700,10.039066650390625,9.696816444396973,1.137245774269104,-0.42377370595932007
1760285893336066800,10.04906689453125,9.699210166931152,1.1324573755264282,-0.40940847992897034
1760285893346066700,10.059066650390625,9.703998565673828,1.1300631761550903,-0.40462008118629456
1760285893356066800,10.06906689453125,9.715970039367676,1.1204863786697388,-0.4118026793003082
1760285893366066700,10.079066650390626,9.739912033081055,1.1204863786697388,-0.42616790533065796
1760285893376066800,10.08906689453125,9.766247749328613,1.1348515748977661,-0.4429273009300232
1760285893386066700,10.099066650390625,9.766247749328613,1.1516109704971313,-0.4429273009300232
1760285893396066800,10.10906689453125,9.739912033081055,1.161187767982483,-0.44532153010368347
1760285893406066700,10.119066650390625,9.708786964416504,1.1659762859344482,-0.45250412821769714
1760285893416066800,10.12906689453125,9.6896333694458,1.170764684677124,-0.4596867263317108
1760285893426066700,10.139066650390625,9.703998565673828,1.1683704853057861,-0.4620809257030487
1760285893436066800,10.14906689453125,9.74709415435791,1.1659762859344482,-0.4668693244457245
1760285893446066700,10.159066650390624,9.80455493927002,1.161187767982483,-0.4644751250743866
1760285893456066800,10.16906689453125,9.864410400390625,1.1516109704971313,-0.4668693244457245
1760285893466066700,10.179066650390626,9.914688110351562,1.1444283723831177,-0.4620809257030487
1760285893476066800,10.18906689453125,9.943418502807617,1.1516109704971313,-0.4596867263317108
1760285893486066700,10.199066650390625,9.96257209777832,1.1635819673538208,-0.4668693244457245
1760285893496066800,10.20906689453125,9.96017837524414,1.1827356815338135,-0.47644615173339844
1760285893506066700,10.219066650390625,9.936236381530762,1.2114660739898682,-0.49320554733276367
1760285893516066800,10.22906689453125,9.885957717895508,1.2425906658172607,-0.5123591423034668
1760285893526066700,10.239066650390624,9.830891609191895,1.259350061416626,-0.5219359993934631
1760285893536066800,10.24906689453125,9.759065628051758,1.2761094570159912,-0.5219359993934631
1760285893546066700,10.259066650390626,9.675268173217773,1.280897855758667,-0.47884035110473633
1760285893556066800,10.26906689453125,9.613018989562988,1.2641384601593018,-0.42856210470199585
1760285893566066700,10.279066650390625,9.579500198364258,1.2521674633026123,-0.40222588181495667
1760285893576066800,10.28906689453125,9.584288597106934,1.237802267074585,-0.3878606855869293
1760285893586066700,10.299066650390625,9.615413665771484,1.2330138683319092,-0.3711012601852417
1760285893596066800,10.30906689453125,9.65372085571289,1.2258312702178955,-0.3471592366695404
1760285893606066700,10.319066650390624,9.682451248168945,1.2090718746185303,-0.3256114423274994
1760285893616066800,10.32906689453125,9.701604843139648,1.192312479019165,-0.3016694188117981
1760285893626066700,10.339066650390626,9.701604843139648,1.1875240802764893,-0.2849099934101105
1760285893636066800,10.34906689453125,9.684844970703125,1.1875240802764893,-0.2753331959247589
1760285893646066700,10.359066650390625,9.651326179504395,1.1971008777618408,-0.2849099934101105
1760285893656066800,10.36906689453125,9.613018989562988,1.2186486721038818,-0.29209262132644653
1760285893666066700,10.379066650390625,9.574711799621582,1.235408067703247,-0.3016694188117981
1760285893676066800,10.38906689453125,9.541193008422852,1.2521674633026123,-0.31842881441116333
1760285893686066700,10.399066650390624,9.517251014709473,1.2737152576446533,-0.33518823981285095
1760285893696066800,10.40906689453125,9.522039413452148,1.2856862545013428,-0.33997663855552673
1760285893706066700,10.419066650390626,9.543587684631348,1.2832920551300049,-0.33997663855552673
1760285893716066800,10.42906689453125,9.58907699584961,1.2665326595306396,-0.3256114423274994
1760285893726066700,10.439066650390625,9.639355659484863,1.2449848651885986,-0.304063618183136
1760285893736066800,10.44906689453125,9.67766284942627,1.2258312702178955,-0.29209262132644653
1760285893746066700,10.459066650390625,9.6896333694458,1.216254472732544,-0.2992752194404602
1760285893756066800,10.46906689453125,9.684844970703125,1.2282254695892334,-0.3208230137825012
1760285893766066700,10.479066650390624,9.663297653198242,1.2521674633026123,-0.33758243918418884
1760285893776066800,10.48906689453125,9.636960983276367,1.2737152576446533,-0.3471592366695404
1760285893786066700,10.499066650390626,9.617807388305664,1.2832920551300049,-0.33997663855552673
1760285893796066800,10.50906689453125,9.615413665771484,1.280897855758667,-0.31842881441116333
1760285893806066700,10.519066650390625,9.627384185791016,1.2761094570159912,-0.29209262132644653
1760285893816066800,10.52906689453125,9.651326179504395,1.278503656387329,-0.2849099934101105
1760285893826066700,10.539066650390625,9.67766284942627,1.290474772453308,-0.3064578175544739
1760285893836066800,10.54906689453125,9.699210166931152,1.3072341680526733,-0.3423708379268646
1760285893856066800,10.56906689453125,9.711181640625,1.3623007535934448,-0.40701428055763245
1760285893866066700,10.579066650390626,9.71357536315918,1.3742717504501343,-0.42377370595932007
1760285893876066800,10.58906689453125,9.723152160644531,1.381454348564148,-0.43335050344467163
1760285893886066700,10.599066650390625,9.74709415435791,1.3766659498214722,-0.43335050344467163
1760285893896066800,10.60906689453125,9.771036148071289,1.3694833517074585,-0.43335050344467163
1760285893906066700,10.619066650390625,9.792584419250488,1.3551181554794312,-0.43095630407333374
1760285893916066800,10.62906689453125,9.785401344299316,1.3455413579940796,-0.4189853072166443
1760285893926066700,10.639066650390625,9.615413665771484,1.3335703611373901,-0.33279404044151306
1760285893936066800,10.64906689453125,9.660902976989746,1.3263877630233765,-0.35913026332855225
1760285893946066700,10.659066650390624,9.67766284942627,1.3096283674240112,-0.38307225704193115
1760285893956066800,10.66906689453125,9.670479774475098,1.2976573705673218,-0.38307225704193115
1760285893966066700,10.679066650390626,9.706393241882324,1.2856862545013428,-0.38307225704193115
1760285893976066800,10.68906689453125,9.732728958129883,1.278503656387329,-0.38546648621559143
1760285893986066700,10.699066650390625,9.754277229309082,1.2641384601593018,-0.3711012601852417
1760285893996066800,10.70906689453125,9.783007621765137,1.2545616626739502,-0.35913026332855225
1760285894006066700,10.719066650390625,9.80216121673584,1.2425906658172607,-0.3423708379268646
1760285894016066800,10.72906689453125,9.80455493927002,1.2282254695892334,-0.3232172429561615
1760285894026066700,10.739066650390624,9.792584419250488,1.2186486721038818,-0.3064578175544739
1760285894036066800,10.74906689453125,9.775824546813965,1.2186486721038818,-0.304063618183136
1760285894046066700,10.759066650390626,9.766247749328613,1.2282254695892334,-0.31603461503982544
1760285894056066800,10.76906689453125,9.751882553100586,1.2449848651885986,-0.3280056416988373
1760285894066066700,10.779066650390625,9.727940559387207,1.256955862045288,-0.33758243918418884
1760285894076066800,10.78906689453125,9.694421768188477,1.2617442607879639,-0.33758243918418884
1760285894086066700,10.799066650390625,9.665691375732422,1.2617442607879639,-0.3280056416988373
1760285894096066800,10.80906689453125,9.641749382019043,1.2617442607879639,-0.31124621629714966
1760285894106066700,10.819066650390624,9.624990463256836,1.2545616626739502,-0.31603461503982544
1760285894116066800,10.82906689453125,9.610625267028809,1.259350061416626,-0.3256114423274994
1760285894126066700,10.839066650390626,9.603442192077637,1.2665326595306396,-0.33279404044151306
1760285894136066800,10.84906689453125,9.591471672058105,1.2641384601593018,-0.33997663855552673
1760285894146066700,10.859066650390625,9.581894874572754,1.2665326595306396,-0.3423708379268646
1760285894156066800,10.86906689453125,9.579500198364258,1.2617442607879639,-0.35434186458587646
1760285894166066700,10.879066650390625,9.581894874572754,1.2641384601593018,-0.35673606395721436
1760285894176066800,10.88906689453125,9.591471672058105,1.256955862045288,-0.3471592366695404
1760285894186066700,10.899066650390624,9.58907699584961,1.2449848651885986,-0.33279404044151306
1760285894196066800,10.90906689453125,9.581894874572754,1.2258312702178955,-0.31124621629714966
1760285894206066700,10.919066650390626,9.56274127960205,1.213860273361206,-0.31842881441116333
1760285894216066800,10.92906689453125,9.569923400878906,1.216254472732544,-0.33039984107017517
1760285894226066700,10.939066650390625,9.584288597106934,1.2258312702178955,-0.3471592366695404
1760285894236066800,10.94906689453125,9.596260070800781,1.2282254695892334,-0.3663128614425659
1760285894246066700,10.959066650390625,9.632172584533691,1.213860273361206,-0.3663128614425659
1760285894256066800,10.96906689453125,9.692028045654297,1.192312479019165,-0.3423708379268646
1760285894266066700,10.979066650390624,9.756670951843262,1.170764684677124,-0.3256114423274994
1760285894276066800,10.98906689453125,9.814131736755371,1.1492167711257935,-0.31364041566848755
1760285894286066700,10.999066650390626,9.864410400390625,1.139639973640442,-0.2968810200691223
1760285894296066800,11.00906689453125,9.902717590332031,1.1348515748977661,-0.2849099934101105
1760285894306066700,11.019066650390625,9.938630104064941,1.137245774269104,-0.28969839215278625
1760285894316066800,11.02906689453125,9.976937294006348,1.137245774269104,-0.30885201692581177
1760285894326066700,11.039066650390625,9.991303443908691,1.1468225717544556,-0.33518823981285095
1760285894336066800,11.04906689453125,9.972148895263672,1.173158884048462,-0.3519476354122162
1760285894346066700,11.059066650390625,9.941024780273438,1.2042834758758545,-0.363918662071228
1760285894356066800,11.06906689453125,9.905111312866211,1.2258312702178955,-0.35913026332855225
1760285894366066700,11.079066650390626,9.847650527954102,1.2234370708465576,-0.33518823981285095
1760285894376066800,11.08906689453125,9.778219223022461,1.2210428714752197,-0.35913026332855225
1760285894386066700,11.099066650390625,9.742305755615234,1.2425906658172607,-0.3998316824436188
1760285894396066800,11.10906689453125,9.737517356872559,1.280897855758667,-0.4357447028160095
1760285894406066700,11.119066650390625,9.749488830566406,1.3120225667953491,-0.4644751250743866
1760285894416066800,11.12906689453125,9.763854026794434,1.335964560508728,-0.49799394607543945
1760285894426066700,11.139066650390625,9.778219223022461,1.357512354850769,-0.5291185975074768
1760285894436066800,11.14906689453125,9.783007621765137,1.3742717504501343,-0.5434837937355042
1760285894446066700,11.159066650390624,9.771036148071289,1.3838485479354858,-0.5506663918495178
1760285894456066800,11.16906689453125,9.749488830566406,1.3862427473068237,-0.545877993106842
1760285894466066700,11.179066650390626,9.727940559387207,1.3934253454208374,-0.5315127968788147
1760285894476066800,11.18906689453125,9.699210166931152,1.3910311460494995,-0.507570743560791
1760285894486066700,11.199066650390625,9.67766284942627,1.381454348564148,-0.4692635238170624
1760285894496066800,11.20906689453125,9.663297653198242,1.3503297567367554,-0.4189853072166443
1760285894506066700,11.219066650390625,9.648932456970215,1.3239935636520386,-0.3878606855869293
1760285894516066800,11.22906689453125,9.639355659484863,1.314416766166687,-0.3663128614425659
1760285894526066700,11.239066650390624,9.634567260742188,1.314416766166687,-0.35434186458587646
1760285894536066800,11.24906689453125,9.632172584533691,1.3120225667953491,-0.3495534360408783
1760285894546066700,11.259066650390626,9.632172584533691,1.3048399686813354,-0.3495534360408783
1760285894556066800,11.26906689453125,9.636960983276367,1.3000515699386597,-0.3423708379268646
1760285894566066700,11.279066650390625,9.644144058227539,1.2952631711959839,-0.33279404044151306
1760285894576066800,11.28906689453125,9.646537780761719,1.2880805730819702,-0.3232172429561615
1760285894586066700,11.299066650390625,9.646537780761719,1.2761094570159912,-0.30885201692581177
1760285894596066800,11.30906689453125,9.641749382019043,1.2617442607879639,-0.2849099934101105
1760285894606066700,11.319066650390624,9.639355659484863,1.2521674633026123,-0.2753331959247589
1760285894616066800,11.32906689453125,9.639355659484863,1.2473790645599365,-0.2753331959247589
1760285894626066700,11.339066650390626,9.648932456970215,1.2617442607879639,-0.29209262132644653
1760285894636066800,11.34906689453125,9.670479774475098,1.280897855758667,-0.31603461503982544
1760285894646066700,11.359066650390625,9.703998565673828,1.3024457693099976,-0.3495534360408783
1760285894656066800,11.36906689453125,9.730335235595703,1.3239935636520386,-0.3758896589279175
1760285894666066700,11.379066650390625,9.74470043182373,1.338358759880066,-0.3878606855869293
1760285894676066800,11.38906689453125,9.742305755615234,1.3407529592514038,-0.37828385829925537
1760285894686066700,11.399066650390624,9.725546836853027,1.335964560508728,-0.3663128614425659
1760285894696066800,11.40906689453125,9.699210166931152,1.338358759880066,-0.3519476354122162
1760285894706066700,11.419066650390626,9.67766284942627,1.335964560508728,-0.3423708379268646
1760285894716066800,11.42906689453125,9.665691375732422,1.338358759880066,-0.3495534360408783
1760285894726066700,11.439066650390625,9.665691375732422,1.3479355573654175,-0.3711012601852417
1760285894736066800,11.44906689453125,9.684844970703125,1.3551181554794312,-0.3926490843296051
1760285894746066700,11.459066650390625,9.723152160644531,1.359906554222107,-0.4118026793003082
1760285894756066800,11.46906689453125,9.759065628051758,1.3623007535934448,-0.40940847992897034
1760285894766066700,11.479066650390624,9.775824546813965,1.3623007535934448,-0.395043283700943
1760285894776066800,11.48906689453125,9.763854026794434,1.359906554222107,-0.37828385829925537
1760285894786066700,11.499066650390626,9.739912033081055,1.3527239561080933,-0.3519476354122162
1760285894796066800,11.50906689453125,9.397541046142578,1.316810965538025,-0.31603461503982544
1760285894806066700,11.519066650390625,9.387964248657227,1.3479355573654175,-0.272938996553421
1760285894816066800,11.52906689453125,9.423876762390137,1.3551181554794312,-0.30885201692581177
1760285894826066700,11.539066650390625,9.40711784362793,1.3694833517074585,-0.395043283700943
1760285894836066800,11.54906689453125,9.438241958618164,1.3958195447921753,-0.4381389021873474
1760285894846066700,11.559066650390625,9.478943824768066,1.403002142906189,-0.45489832758903503
1760285894856066800,11.56906689453125,9.522039413452148,1.3862427473068237,-0.45010992884635925
1760285894866066700,11.579066650390626,9.584288597106934,1.3670891523361206,-0.43095630407333374
1760285894876066800,11.58906689453125,9.644144058227539,1.3431471586227417,-0.40462008118629456
1760285894886066700,11.599066650390625,9.6896333694458,1.3215993642807007,-0.38546648621559143
1760285894896066800,11.60906689453125,9.715970039367676,1.3048399686813354,-0.38546648621559143
1760285894906066700,11.619066650390625,9.732728958129883,1.3024457693099976,-0.3974374830722809
1760285894916066800,11.62906689453125,9.739912033081055,1.3048399686813354,-0.40462008118629456
1760285894926066700,11.639066650390625,9.74470043182373,1.3072341680526733,-0.40940847992897034
1760285894936066800,11.64906689453125,9.763854026794434,1.314416766166687,-0.40940847992897034
1760285894946066700,11.659066650390624,9.790189743041992,1.3287819623947144,-0.4189853072166443
1760285894956066800,11.66906689453125,9.830891609191895,1.3455413579940796,-0.4189853072166443
1760285894966066700,11.679066650390626,9.862015724182129,1.3551181554794312,-0.43335050344467163
1760285894976066800,11.68906689453125,9.866804122924805,1.357512354850769,-0.44771572947502136
1760285894986066700,11.699066650390625,9.847650527954102,1.3670891523361206,-0.45010992884635925
1760285894996066800,11.70906689453125,9.814131736755371,1.3766659498214722,-0.45010992884635925
1760285895006066700,11.719066650390625,9.783007621765137,1.3886369466781616,-0.45250412821769714
1760285895016066800,11.72906689453125,9.763854026794434,1.3982137441635132,-0.4668693244457245
1760285895026066700,11.739066650390624,9.761459350585938,1.4053963422775269,-0.4812345504760742
1760285895036066800,11.74906689453125,9.773430824279785,1.403002142906189,-0.47644615173339844
1760285895046066700,11.759066650390626,9.794978141784668,1.3910311460494995,-0.44771572947502136
1760285895056066800,11.76906689453125,9.809343338012695,1.359906554222107,-0.40222588181495667
1760285895066066700,11.779066650390625,9.816526412963867,1.3287819623947144,-0.3663128614425659
1760285895076066800,11.78906689453125,9.799766540527344,1.2952631711959839,-0.3495534360408783
1760285895086066700,11.799066650390625,9.766247749328613,1.290474772453308,-0.35434186458587646
1760285895096066800,11.80906689453125,9.718363761901855,1.3072341680526733,-0.3758896589279175
1760285895106066700,11.819066650390624,9.675268173217773,1.3263877630233765,-0.3974374830722809
1760285895116066800,11.82906689453125,9.644144058227539,1.3455413579940796,-0.40940847992897034
1760285895126066700,11.839066650390626,9.632172584533691,1.357512354850769,-0.4165911078453064
1760285895136066800,11.84906689453125,9.632172584533691,1.3623007535934448,-0.4118026793003082
1760285895146066700,11.859066650390625,9.639355659484863,1.3670891523361206,-0.3926490843296051
1760285895156066800,11.86906689453125,9.65372085571289,1.359906554222107,-0.3734954595565796
1760285895166066700,11.879066650390625,9.663297653198242,1.3479355573654175,-0.3447650372982025
1760285895176066800,11.88906689453125,9.65372085571289,1.3192051649093628,-0.31842881441116333
1760285895186066700,11.899066650390624,9.634567260742188,1.3072341680526733,-0.2992752194404602
1760285895196066800,11.90906689453125,9.596260070800781,1.3215993642807007,-0.3064578175544739
1760285895206066700,11.919066650390626,9.548376083374023,1.3431471586227417,-0.3280056416988373
1760285895216066800,11.92906689453125,9.490914344787598,1.3646949529647827,-0.3447650372982025
1760285895226066700,11.939066650390625,9.44303035736084,1.37906014919281,-0.35913026332855225
1760285895236066800,11.94906689453125,9.426271438598633,1.3886369466781616,-0.363918662071228
1760285895246066700,11.959066650390625,9.435848236083984,1.3910311460494995,-0.363918662071228
1760285895256066800,11.96906689453125,9.462183952331543,1.3934253454208374,-0.3663128614425659
1760285895266066700,11.979066650390624,9.500492095947266,1.3982137441635132,-0.3758896589279175
1760285895276066800,11.98906689453125,9.5316162109375,1.3982137441635132,-0.38546648621559143
1760285895286066700,11.999066650390626,9.5531644821167,1.4077905416488647,-0.3926490843296051
1760285895296066800,12.00906689453125,9.569923400878906,1.41257905960083,-0.3974374830722809
1760285895306066700,12.019066650390625,9.584288597106934,1.4173674583435059,-0.3974374830722809
1760285895316066800,12.02906689453125,9.601048469543457,1.4221558570861816,-0.3926490843296051
1760285895326066700,12.039066650390625,9.62259578704834,1.4197616577148438,-0.3878606855869293
1760285895336066800,12.04906689453125,9.651326179504395,1.414973258972168,-0.38546648621559143
1760285895346066700,12.059066650390625,9.68005657196045,1.4077905416488647,-0.38067805767059326
1760285895356066800,12.06906689453125,9.701604843139648,1.400607943534851,-0.3734954595565796
1760285895366066700,12.079066650390626,9.720758438110352,1.3958195447921753,-0.36152446269989014
1760285895376066800,12.08906689453125,9.735123634338379,1.3934253454208374,-0.35913026332855225
1760285895386066700,12.099066650390625,9.74709415435791,1.3934253454208374,-0.3663128614425659
1760285895396066800,12.10906689453125,9.761459350585938,1.4053963422775269,-0.38307225704193115
1760285895406066700,12.119066650390625,9.783007621765137,1.41257905960083,-0.395043283700943
1760285895416066800,12.12906689453125,9.806949615478516,1.4173674583435059,-0.395043283700943
1760285895426066700,12.139066650390625,9.811738014221191,1.4101848602294922,-0.3734954595565796
1760285895436066800,12.14906689453125,9.797372817993164,1.3934253454208374,-0.3447650372982025
1760285895446066700,12.159066650390624,9.775824546813965,1.37906014919281,-0.3256114423274994
1760285895456066800,12.16906689453125,9.749488830566406,1.3742717504501343,-0.31603461503982544
1760285895466066700,12.179066650390626,9.730335235595703,1.3766659498214722,-0.31364041566848755
1760285895476066800,12.18906689453125,9.727940559387207,1.3886369466781616,-0.3208230137825012
1760285895486066700,12.199066650390625,9.38556957244873,1.357512354850769,-0.363918662071228
1760285895496066800,12.20906689453125,9.426271438598633,1.400607943534851,-0.304063618183136
1760285895506066700,12.219066650390625,9.404723167419434,1.3934253454208374,-0.2992752194404602
1760285895516066800,12.22906689453125,9.320926666259766,1.4173674583435059,-0.3495534360408783
1760285895526066700,12.239066650390624,9.371204376220703,1.400607943534851,-0.36152446269989014
1760285895536066800,12.24906689453125,9.471760749816895,1.3623007535934448,-0.3447650372982025
1760285895546066700,12.259066650390626,9.584288597106934,1.3431471586227417,-0.3447650372982025
1760285895556066800,12.26906689453125,9.644144058227539,1.3503297567367554,-0.395043283700943
1760285895566066700,12.279066650390625,9.651326179504395,1.3718775510787964,-0.4596867263317108
1760285895576066800,12.28906689453125,9.617807388305664,1.400607943534851,-0.5003881454467773
1760285895586066700,12.299066650390625,9.579500198364258,1.414973258972168,-0.524330198764801
1760285895596066800,12.30906689453125,9.560346603393555,1.4077905416488647,-0.5123591423034668
1760285895606066700,12.319066650390624,9.543587684631348,1.37906014919281,-0.4668693244457245
1760285895616066800,12.32906689453125,9.543587684631348,1.3431471586227417,-0.40940847992897034
1760285895626066700,12.339066650390626,9.545981407165527,1.3120225667953491,-0.3663128614425659
1760285895636066800,12.34906689453125,9.567529678344727,1.292868971824646,-0.3519476354122162
1760285895646066700,12.359066650390625,9.610625267028809,1.2880805730819702,-0.3663128614425659
1760285895666066700,12.379066650390625,9.71357536315918,1.3120225667953491,-0.43095630407333374
1760285895676066800,12.38906689453125,9.751882553100586,1.3024457693099976,-0.42856210470199585
1760285895686066700,12.399066650390624,9.78061294555664,1.280897855758667,-0.40701428055763245
1760285895696066800,12.40906689453125,9.790189743041992,1.256955862045288,-0.3758896589279175
1760285895706066700,12.419066650390626,9.787796020507812,1.2497732639312744,-0.35913026332855225
1760285895716066800,12.42906689453125,9.76864242553711,1.2473790645599365,-0.35673606395721436
1760285895736066800,12.44906689453125,9.754277229309082,1.259350061416626,-0.3758896589279175
1760285895746066700,12.459066650390625,9.76864242553711,1.278503656387329,-0.4165911078453064
1760285895756066800,12.46906689453125,9.80216121673584,1.3048399686813354,-0.44771572947502136
1760285895766066700,12.479066650390624,9.828496932983398,1.3263877630233765,-0.4836287498474121
1760285895776066800,12.48906689453125,9.850045204162598,1.3455413579940796,-0.5147533416748047
1760285895786066700,12.499066650390626,9.852438926696777,1.3551181554794312,-0.524330198764801
1760285895796066800,12.50906689453125,9.840468406677246,1.3407529592514038,-0.5051765441894531
1760285895806066700,12.519066650390625,9.833285331726074,1.3192051649093628,-0.4668693244457245
1760285895816066800,12.52906689453125,9.823708534240723,1.2832920551300049,-0.42856210470199585
1760285895826066700,12.539066650390625,9.816526412963867,1.2545616626739502,-0.40222588181495667
1760285895836066800,12.54906689453125,9.823708534240723,1.2401964664459229,-0.3902548849582672
1760285895846066700,12.559066650390625,9.847650527954102,1.237802267074585,-0.40222588181495667
1760285895856066800,12.56906689453125,9.890746116638184,1.2425906658172607,-0.43095630407333374
1760285895866066700,12.579066650390626,9.921871185302734,1.2545616626739502,-0.45489832758903503
1760285895876066800,12.58906689453125,9.931447982788086,1.2641384601593018,-0.4620809257030487
1760285895886066700,12.599066650390625,9.888352394104004,1.2258312702178955,-0.4165911078453064
1760285895896066800,12.60906689453125,9.809343338012695,1.2330138683319092,-0.3902548849582672
1760285895906066700,12.619066650390625,9.711181640625,1.2689268589019775,-0.40462008118629456
1760285895916066800,12.62906689453125,9.615413665771484,1.3024457693099976,-0.4357447028160095
1760285895926066700,12.639066650390625,9.536404609680176,1.3311761617660522,-0.4572925269603729
1760285895936066800,12.64906689453125,9.478943824768066,1.3527239561080933,-0.44771572947502136
1760285895946066700,12.659066650390624,9.44063663482666,1.3527239561080933,-0.42377370595932007
1760285895956066800,12.66906689453125,9.421483039855957,1.3479355573654175,-0.40222588181495667
1760285895966066700,12.679066650390626,9.423876762390137,1.338358759880066,-0.395043283700943
1760285895976066800,12.68906689453125,9.455001831054688,1.3311761617660522,-0.40222588181495667
1760285895986066700,12.699066650390625,9.49809741973877,1.335964560508728,-0.4189853072166443
1760285895996066800,12.70906689453125,9.534010887145996,1.338358759880066,-0.43335050344467163
1760285896006066700,12.719066650390625,9.557952880859375,1.335964560508728,-0.4357447028160095
1760285896016066800,12.72906689453125,9.574711799621582,1.3311761617660522,-0.4189853072166443
1760285896026066700,12.739066650390624,9.58668327331543,1.3239935636520386,-0.3902548849582672
1760285896036066800,12.74906689453125,9.593865394592285,1.3120225667953491,-0.363918662071228
1760285896046066700,12.759066650390626,9.601048469543457,1.3120225667953491,-0.3519476354122162
1760285896056066800,12.76906689453125,9.62259578704834,1.3192051649093628,-0.35913026332855225
1760285896066066700,12.779066650390625,9.665691375732422,1.3239935636520386,-0.3711012601852417
1760285896076066800,12.78906689453125,9.723152160644531,1.3311761617660522,-0.3663128614425659
1760285896086066700,12.799066650390625,9.792584419250488,1.3215993642807007,-0.35673606395721436
1760285896096066800,12.80906689453125,9.862015724182129,1.3096283674240112,-0.3447650372982025
1760285896106066700,12.819066650390624,9.914688110351562,1.2976573705673218,-0.3280056416988373
1760285896116066800,12.82906689453125,9.919476509094238,1.2976573705673218,-0.31842881441116333
1760285896126066700,12.839066650390626,9.883563995361328,1.3096283674240112,-0.3208230137825012
1760285896136066800,12.84906689453125,9.840468406677246,1.3311761617660522,-0.33039984107017517
1760285896146066700,12.859066650390625,9.80455493927002,1.3527239561080933,-0.33039984107017517
1760285896156066800,12.86906689453125,9.78061294555664,1.3646949529647827,-0.3256114423274994
1760285896166066700,12.879066650390625,9.76864242553711,1.3646949529647827,-0.31364041566848755
1760285896176066800,12.88906689453125,9.766247749328613,1.3646949529647827,-0.31124621629714966
1760285896186066700,12.899066650390624,9.775824546813965,1.3718775510787964,-0.31603461503982544
1760285896196066800,12.90906689453125,9.794978141784668,1.37906014919281,-0.3280056416988373
1760285896206066700,12.919066650390626,9.799766540527344,1.3886369466781616,-0.33758243918418884
1760285896216066800,12.92906689453125,9.763854026794434,1.3862427473068237,-0.33279404044151306
1760285896226066700,12.939066650390625,9.699210166931152,1.37906014919281,-0.31842881441116333
1760285896236066800,12.94906689453125,9.634567260742188,1.3766659498214722,-0.2944868206977844
1760285896246066700,12.959066650390625,9.58907699584961,1.3694833517074585,-0.2753331959247589
1760285896256066800,12.96906689453125,9.567529678344727,1.359906554222107,-0.26815059781074524
1760285896266066700,12.979066650390624,9.56274127960205,1.359906554222107,-0.272938996553421
1760285896276066800,12.98906689453125,9.560346603393555,1.3646949529647827,-0.28730419278144836
1760285896286066700,12.999066650390626,9.567529678344727,1.3670891523361206,-0.3016694188117981
1760285896296066800,13.00906689453125,9.591471672058105,1.3670891523361206,-0.31124621629714966
